Time,header.seq,header.stamp.secs,header.stamp.nsecs,header.frame_id,time_stamp,quat_x,quat_y,quat_z,quat_w,gyro_x,gyro_y,gyro_z,accel_x,accel_y,accel_z,euler_x,euler_y,euler_z,gravity_x,gravity_y,gravity_z
1738244464.0607972,26769,0,0,,0.0,-0.09,0.26,0.82,0.5,0.02,-0.04,-0.01,-4.29,3.31,8.15,0.0,0.0,0.0,-4.08,3.3,8.28
1738244464.0754776,26770,0,0,,0.0,-0.09,0.26,0.82,0.5,0.02,-0.04,-0.01,-4.26,3.01,8.11,0.0,0.0,0.0,-4.08,3.3,8.28
1738244464.0938914,26771,0,0,,0.0,-0.09,0.26,0.82,0.5,0.02,-0.04,-0.01,-3.72,3.11,8.33,0.0,0.0,0.0,-4.07,3.3,8.28
1738244464.1108735,26772,0,0,,0.0,-0.09,0.26,0.82,0.5,0.05,-0.01,-0.0,-4.57,2.71,8.07,0.0,0.0,0.0,-4.07,3.31,8.28
1738244464.1250188,26773,0,0,,0.0,-0.09,0.26,0.82,0.5,0.07,-0.01,0.01,-4.71,3.35,8.13,0.0,0.0,0.0,-4.07,3.32,8.27
1738244464.1435127,26774,0,0,,0.0,-0.09,0.26,0.82,0.5,0.07,0.01,0.0,-3.96,2.99,8.2,0.0,0.0,0.0,-4.07,3.33,8.27
1738244464.1611116,26775,0,0,,0.0,-0.09,0.26,0.82,0.5,0.05,-0.01,-0.0,-3.88,3.19,8.14,0.0,0.0,0.0,-4.07,3.33,8.27
1738244464.175317,26776,0,0,,0.0,-0.09,0.26,0.82,0.5,0.02,-0.02,-0.03,-3.83,3.68,8.46,0.0,0.0,0.0,-4.07,3.34,8.27
1738244464.1940165,26777,0,0,,0.0,-0.09,0.26,0.82,0.5,0.0,-0.03,-0.02,-3.63,3.15,8.3,0.0,0.0,0.0,-4.06,3.33,8.27
1738244464.211309,26778,0,0,,0.0,-0.09,0.26,0.82,0.5,-0.03,-0.03,-0.04,-3.9,3.52,8.37,0.0,0.0,0.0,-4.06,3.32,8.27
1738244464.2258866,26779,0,0,,0.0,-0.09,0.26,0.82,0.5,-0.05,-0.02,-0.06,-4.82,3.15,8.16,0.0,0.0,0.0,-4.06,3.32,8.28
1738244464.2443783,26780,0,0,,0.0,-0.09,0.26,0.82,0.5,-0.06,-0.03,-0.05,-3.79,3.15,8.35,0.0,0.0,0.0,-4.06,3.3,8.28
1738244464.2614324,26781,0,0,,0.0,-0.09,0.26,0.82,0.5,-0.07,-0.01,-0.05,-4.5,2.93,8.27,0.0,0.0,0.0,-4.06,3.3,8.29
1738244464.276207,26782,0,0,,0.0,-0.09,0.26,0.82,0.5,-0.06,-0.02,-0.04,-4.19,3.21,8.29,0.0,0.0,0.0,-4.06,3.28,8.29
1738244464.2945817,26783,0,0,,0.0,-0.09,0.26,0.82,0.5,-0.06,-0.01,-0.04,-4.71,2.72,8.19,0.0,0.0,0.0,-4.07,3.27,8.29
1738244464.311831,26784,0,0,,0.0,-0.09,0.26,0.82,0.5,-0.05,-0.02,-0.03,-4.16,2.93,8.34,0.0,0.0,0.0,-4.07,3.26,8.3
1738244464.3260689,26785,0,0,,0.0,-0.09,0.26,0.82,0.5,-0.06,-0.01,-0.04,-4.03,3.32,8.42,0.0,0.0,0.0,-4.07,3.25,8.3
1738244464.344409,26786,0,0,,0.0,-0.09,0.26,0.82,0.5,-0.05,-0.01,-0.03,-4.05,2.83,8.32,0.0,0.0,0.0,-4.07,3.24,8.31
1738244464.3619683,26787,0,0,,0.0,-0.09,0.26,0.82,0.5,-0.04,-0.02,-0.03,-4.09,3.3,8.41,0.0,0.0,0.0,-4.07,3.24,8.31
1738244464.3763385,26788,0,0,,0.0,-0.09,0.26,0.82,0.5,-0.03,-0.02,-0.02,-4.88,3.04,8.21,0.0,0.0,0.0,-4.06,3.23,8.31
1738244464.3944256,26789,0,0,,0.0,-0.09,0.26,0.82,0.5,-0.03,-0.0,-0.03,-3.9,2.85,8.37,0.0,0.0,0.0,-4.06,3.22,8.31
1738244464.4119003,26790,0,0,,0.0,-0.09,0.26,0.82,0.5,-0.02,-0.01,-0.02,-4.77,2.93,8.26,0.0,0.0,0.0,-4.06,3.22,8.31
1738244464.4331682,26791,0,0,,0.0,-0.09,0.26,0.82,0.5,-0.01,-0.01,-0.02,-4.56,3.0,8.33,0.0,0.0,0.0,-4.06,3.22,8.32
1738244464.4534843,26792,0,0,,0.0,-0.09,0.26,0.82,0.5,-0.0,-0.01,-0.02,-3.75,3.22,8.3,0.0,0.0,0.0,-4.06,3.21,8.32
1738244464.4681761,26793,0,0,,0.0,-0.09,0.26,0.82,0.5,0.0,-0.03,-0.01,-3.88,3.37,8.23,0.0,0.0,0.0,-4.06,3.21,8.32
1738244464.4850976,26794,0,0,,0.0,-0.09,0.26,0.82,0.5,0.0,-0.01,-0.02,-4.17,2.94,8.4,0.0,0.0,0.0,-4.06,3.21,8.32
1738244464.5039675,26795,0,0,,0.0,-0.09,0.26,0.82,0.5,0.02,-0.02,-0.02,-4.42,3.03,8.14,0.0,0.0,0.0,-4.06,3.22,8.32
1738244464.5183458,26796,0,0,,0.0,-0.09,0.26,0.82,0.5,0.04,-0.01,-0.02,-4.41,2.7,8.32,0.0,0.0,0.0,-4.06,3.22,8.32
1738244464.535057,26797,0,0,,0.0,-0.09,0.26,0.82,0.51,0.05,0.0,-0.02,-4.17,2.72,8.19,0.0,0.0,0.0,-4.06,3.23,8.31
1738244464.5540938,26798,0,0,,0.0,-0.09,0.26,0.82,0.51,0.07,0.03,-0.03,-3.43,3.26,8.37,0.0,0.0,0.0,-4.07,3.24,8.31
1738244464.5687428,26799,0,0,,0.0,-0.09,0.26,0.82,0.51,0.08,0.09,-0.05,-4.76,3.24,8.64,0.0,0.0,0.0,-4.08,3.24,8.3
1738244464.5853431,26800,0,0,,0.0,-0.09,0.26,0.82,0.51,0.07,0.07,-0.06,-4.55,3.06,8.19,0.0,0.0,0.0,-4.09,3.25,8.29
1738244464.6040633,26801,0,0,,0.0,-0.1,0.26,0.82,0.51,0.07,0.14,-0.11,-4.22,3.04,8.37,0.0,0.0,0.0,-4.13,3.25,8.27
1738244464.6190064,26802,0,0,,0.0,-0.1,0.26,0.82,0.51,0.09,0.22,-0.16,-4.09,3.06,8.3,0.0,0.0,0.0,-4.15,3.25,8.26
1738244464.634775,26803,0,0,,0.0,-0.1,0.27,0.81,0.51,0.09,0.27,-0.18,-3.85,3.04,8.58,0.0,0.0,0.0,-4.21,3.25,8.23
1738244464.6543632,26804,0,0,,0.0,-0.1,0.27,0.81,0.51,0.1,0.36,-0.19,-3.56,3.12,8.3,0.0,0.0,0.0,-4.24,3.25,8.22
1738244464.6686661,26805,0,0,,0.0,-0.1,0.27,0.81,0.51,0.13,0.52,-0.21,-3.77,2.86,8.61,0.0,0.0,0.0,-4.32,3.24,8.17
1738244464.6850066,26806,0,0,,0.0,-0.11,0.27,0.81,0.51,0.15,0.6,-0.2,-4.87,2.88,8.31,0.0,0.0,0.0,-4.44,3.24,8.11
1738244464.7043116,26807,0,0,,0.0,-0.11,0.28,0.81,0.51,0.17,0.77,-0.23,-3.93,3.41,8.22,0.0,0.0,0.0,-4.51,3.25,8.07
1738244464.7193472,26808,0,0,,0.0,-0.12,0.28,0.81,0.51,0.17,0.93,-0.27,-4.93,2.83,8.16,0.0,0.0,0.0,-4.66,3.25,7.98
1738244464.7350702,26809,0,0,,0.0,-0.13,0.29,0.8,0.51,0.16,1.01,-0.29,-4.51,2.94,8.35,0.0,0.0,0.0,-4.84,3.25,7.88
1738244464.7548647,26810,0,0,,0.0,-0.14,0.29,0.8,0.51,0.15,1.12,-0.3,-5.72,2.76,7.96,0.0,0.0,0.0,-5.03,3.24,7.76
1738244464.7691576,26811,0,0,,0.0,-0.14,0.3,0.8,0.51,0.15,1.24,-0.3,-5.08,2.81,7.87,0.0,0.0,0.0,-5.13,3.24,7.69
1738244464.785625,26812,0,0,,0.0,-0.15,0.3,0.79,0.51,0.14,1.32,-0.33,-4.64,3.32,7.71,0.0,0.0,0.0,-5.36,3.22,7.54
1738244464.8048697,26813,0,0,,0.0,-0.16,0.31,0.79,0.5,0.16,1.44,-0.35,-5.61,2.99,7.62,0.0,0.0,0.0,-5.59,3.21,7.38
1738244464.8192878,26814,0,0,,0.0,-0.17,0.32,0.79,0.5,0.15,1.58,-0.43,-5.58,3.11,7.53,0.0,0.0,0.0,-5.72,3.2,7.29
1738244464.8355057,26815,0,0,,0.0,-0.18,0.32,0.78,0.5,0.13,1.64,-0.49,-6.05,3.63,7.11,0.0,0.0,0.0,-5.98,3.15,7.09
1738244464.8546278,26816,0,0,,0.0,-0.2,0.33,0.77,0.5,0.01,1.78,-0.63,-6.45,3.4,7.39,0.0,0.0,0.0,-6.12,3.12,6.99
1738244464.869295,26817,0,0,,0.0,-0.21,0.33,0.77,0.5,-0.07,1.92,-0.81,-7.17,2.85,7.09,0.0,0.0,0.0,-6.41,3.02,6.76
1738244464.8855495,26818,0,0,,0.0,-0.23,0.34,0.76,0.5,-0.09,2.05,-0.92,-7.07,1.93,7.29,0.0,0.0,0.0,-6.74,2.9,6.49
1738244464.9052324,26819,0,0,,0.0,-0.25,0.35,0.75,0.5,0.36,2.33,-1.16,-8.04,4.04,7.72,0.0,0.0,0.0,-6.92,2.84,6.33
1738244464.9194674,26820,0,0,,0.0,-0.26,0.36,0.74,0.51,0.26,2.65,-1.57,-7.24,3.74,7.7,0.0,0.0,0.0,-7.3,2.68,5.96
1738244464.9353168,26821,0,0,,0.0,-0.28,0.37,0.72,0.51,0.25,2.7,-1.74,-6.67,4.63,7.59,0.0,0.0,0.0,-7.71,2.43,5.54
1738244464.9549313,26822,0,0,,0.0,-0.31,0.38,0.7,0.51,0.13,3.11,-2.16,-8.2,3.9,8.14,0.0,0.0,0.0,-7.92,2.28,5.3
1738244464.9699652,26823,0,0,,0.0,-0.33,0.39,0.69,0.52,-0.03,3.45,-2.54,-8.7,3.24,7.81,0.0,0.0,0.0,-8.35,1.9,4.77
1738244464.9859214,26824,0,0,,0.0,-0.36,0.39,0.67,0.52,-0.09,3.64,-2.71,-7.56,4.0,6.88,0.0,0.0,0.0,-8.76,1.42,4.16
1738244465.005315,26825,0,0,,0.0,-0.4,0.4,0.64,0.52,-0.41,3.98,-2.99,-7.31,2.79,6.39,0.0,0.0,0.0,-8.95,1.15,3.82
1738244465.019717,26826,0,0,,0.0,-0.43,0.4,0.62,0.52,-0.68,4.3,-3.12,-6.69,1.65,5.15,0.0,0.0,0.0,-9.29,0.56,3.08
1738244465.0359464,26827,0,0,,0.0,-0.47,0.41,0.59,0.52,-0.84,4.42,-3.18,-7.73,-1.04,4.78,0.0,0.0,0.0,-9.53,-0.06,2.27
1738244465.0554683,26828,0,0,,0.0,-0.51,0.41,0.56,0.51,-1.03,4.59,-3.1,-7.71,-1.12,3.79,0.0,0.0,0.0,-9.62,-0.37,1.84
1738244465.0695517,26829,0,0,,0.0,-0.53,0.41,0.54,0.51,-0.95,4.66,-2.87,-8.89,-0.41,2.92,0.0,0.0,0.0,-9.71,-0.94,0.96
1738244465.0857966,26830,0,0,,0.0,-0.57,0.41,0.51,0.5,-1.02,4.64,-2.73,-10.04,-1.35,2.62,0.0,0.0,0.0,-9.69,-1.44,0.07
1738244465.1056406,26831,0,0,,0.0,-0.6,0.42,0.48,0.49,-0.63,4.44,-2.02,-11.31,0.33,3.38,0.0,0.0,0.0,-9.66,-1.63,-0.35
1738244465.1200817,26832,0,0,,0.0,-0.61,0.42,0.46,0.48,-0.15,3.36,-1.37,-13.17,1.29,5.19,0.0,0.0,0.0,-9.56,-1.9,-1.05
1738244465.1365356,26833,0,0,,0.0,-0.62,0.43,0.45,0.48,-0.07,2.48,-1.04,-12.1,2.22,6.37,0.0,0.0,0.0,-9.47,-2.07,-1.41
1738244465.1555724,26834,0,0,,0.0,-0.63,0.42,0.45,0.48,-0.26,0.36,-0.66,-11.04,2.43,5.34,0.0,0.0,0.0,-9.45,-2.13,-1.45
1738244465.1700583,26835,0,0,,0.0,-0.63,0.42,0.45,0.48,-0.43,-1.3,-0.06,-9.21,0.82,2.69,0.0,0.0,0.0,-9.47,-2.16,-1.3
1738244465.186355,26836,0,0,,0.0,-0.61,0.41,0.47,0.48,-0.29,-1.83,0.33,-10.09,1.78,3.65,0.0,0.0,0.0,-9.54,-2.06,-0.92
1738244465.2051904,26837,0,0,,0.0,-0.59,0.4,0.49,0.49,-0.13,-3.02,1.2,-10.3,1.47,3.98,0.0,0.0,0.0,-9.58,-1.95,-0.64
1738244465.2199757,26838,0,0,,0.0,-0.58,0.4,0.51,0.49,-0.48,-4.36,1.63,-9.63,-2.15,2.95,0.0,0.0,0.0,-9.66,-1.65,0.09
1738244465.2362502,26839,0,0,,0.0,-0.55,0.38,0.55,0.5,-0.33,-5.11,1.68,-6.22,-4.35,-0.05,0.0,0.0,0.0,-9.65,-1.34,1.08
1738244465.2556524,26840,0,0,,0.0,-0.51,0.36,0.58,0.52,0.72,-5.44,1.39,-6.78,-1.94,1.09,0.0,0.0,0.0,-9.59,-1.2,1.59
1738244465.270115,26841,0,0,,0.0,-0.49,0.36,0.59,0.53,1.05,-5.08,0.96,-8.55,1.78,2.92,0.0,0.0,0.0,-9.41,-0.97,2.56
1738244465.2860174,26842,0,0,,0.0,-0.46,0.34,0.62,0.54,0.84,-5.1,0.97,-7.06,0.43,2.15,0.0,0.0,0.0,-9.13,-0.75,3.49
1738244465.3055701,26843,0,0,,0.0,-0.42,0.32,0.64,0.55,0.5,-4.92,1.22,-7.08,0.34,2.02,0.0,0.0,0.0,-8.96,-0.62,3.92
1738244465.3201458,26844,0,0,,0.0,-0.4,0.31,0.66,0.56,0.72,-4.51,1.4,-7.96,1.66,2.62,0.0,0.0,0.0,-8.59,-0.33,4.71
1738244465.3361802,26845,0,0,,0.0,-0.36,0.3,0.68,0.56,0.73,-4.29,1.52,-8.42,1.98,2.84,0.0,0.0,0.0,-8.18,0.0,5.4
1738244465.3553987,26846,0,0,,0.0,-0.33,0.29,0.7,0.56,0.69,-3.85,1.9,-8.63,1.97,3.08,0.0,0.0,0.0,-7.97,0.17,5.7
1738244465.370113,26847,0,0,,0.0,-0.31,0.29,0.71,0.56,0.64,-3.37,2.2,-9.04,0.51,4.1,0.0,0.0,0.0,-7.55,0.57,6.22
1738244465.3867753,26848,0,0,,0.0,-0.28,0.28,0.73,0.55,0.7,-3.14,2.3,-9.2,0.22,4.72,0.0,0.0,0.0,-7.14,0.99,6.64
1738244465.4066834,26849,0,0,,0.0,-0.25,0.28,0.75,0.55,0.77,-2.86,2.32,-9.35,-0.83,6.41,0.0,0.0,0.0,-6.93,1.2,6.83
1738244465.4208283,26850,0,0,,0.0,-0.24,0.28,0.75,0.55,0.87,-2.79,2.08,-9.29,-1.06,7.08,0.0,0.0,0.0,-6.49,1.59,7.17
1738244465.4365776,26851,0,0,,0.0,-0.21,0.28,0.77,0.54,0.91,-2.78,1.93,-9.71,-0.24,7.66,0.0,0.0,0.0,-6.03,1.95,7.47
1738244465.4555874,26852,0,0,,0.0,-0.18,0.27,0.78,0.54,0.97,-2.79,1.68,-9.65,0.04,7.47,0.0,0.0,0.0,-5.79,2.12,7.61
1738244465.4702535,26853,0,0,,0.0,-0.16,0.27,0.78,0.54,0.88,-2.67,1.58,-9.83,0.45,6.91,0.0,0.0,0.0,-5.32,2.42,7.87
1738244465.4864302,26854,0,0,,0.0,-0.14,0.26,0.79,0.53,0.81,-2.52,1.58,-9.66,0.34,6.04,0.0,0.0,0.0,-4.87,2.7,8.07
1738244465.5058331,26855,0,0,,0.0,-0.11,0.26,0.8,0.53,0.63,-2.03,1.52,-9.79,0.3,5.81,0.0,0.0,0.0,-4.67,2.82,8.14
1738244465.5208127,26856,0,0,,0.0,-0.11,0.26,0.8,0.52,0.51,-1.46,1.4,-10.75,-0.55,6.41,0.0,0.0,0.0,-4.33,3.03,8.25
1738244465.5368333,26857,0,0,,0.0,-0.09,0.26,0.81,0.52,0.54,-1.24,1.32,-10.56,-0.53,6.03,0.0,0.0,0.0,-4.07,3.21,8.31
1738244465.5558326,26858,0,0,,0.0,-0.08,0.26,0.81,0.51,0.41,-0.83,0.95,-9.62,-1.57,4.04,0.0,0.0,0.0,-3.98,3.28,8.33
1738244465.5700817,26859,0,0,,0.0,-0.08,0.26,0.82,0.51,0.25,-0.06,0.43,-8.58,-0.65,0.74,0.0,0.0,0.0,-3.89,3.37,8.34
1738244465.5863647,26860,0,0,,0.0,-0.09,0.26,0.82,0.51,0.0,0.49,0.17,-8.61,-1.19,0.31,0.0,0.0,0.0,-4.02,3.36,8.28
1738244465.6058333,26861,0,0,,0.0,-0.11,0.26,0.82,0.51,-0.79,1.7,-0.31,-17.6,-3.92,15.43,0.0,0.0,0.0,-4.17,3.28,8.24
1738244465.620639,26862,0,0,,0.0,-0.11,0.25,0.82,0.51,-1.41,-0.52,0.02,-10.92,0.93,16.46,0.0,0.0,0.0,-4.25,2.95,8.32
1738244465.6368227,26863,0,0,,0.0,-0.1,0.24,0.82,0.51,-0.48,-1.57,0.48,-2.16,1.55,5.04,0.0,0.0,0.0,-3.96,2.95,8.46
1738244465.6558797,26864,0,0,,0.0,-0.09,0.24,0.83,0.5,-0.29,-1.1,0.44,2.79,6.9,10.44,0.0,0.0,0.0,-3.86,2.95,8.51
1738244465.6705642,26865,0,0,,0.0,-0.09,0.23,0.83,0.51,-0.48,-0.02,-0.21,-6.86,1.97,9.61,0.0,0.0,0.0,-3.8,2.88,8.56
1738244465.6863773,26866,0,0,,0.0,-0.1,0.23,0.83,0.51,-0.62,0.3,-0.33,-5.83,0.54,9.41,0.0,0.0,0.0,-3.85,2.77,8.58
1738244465.7063737,26867,0,0,,0.0,-0.1,0.23,0.83,0.51,-0.22,0.06,-0.09,-4.54,0.29,9.02,0.0,0.0,0.0,-3.86,2.75,8.58
1738244465.72089,26868,0,0,,0.0,-0.1,0.23,0.83,0.51,0.23,0.06,0.09,-3.32,1.42,8.57,0.0,0.0,0.0,-3.86,2.77,8.57
1738244465.7367108,26869,0,0,,0.0,-0.1,0.24,0.82,0.51,0.39,0.08,0.13,-3.33,2.46,8.56,0.0,0.0,0.0,-3.88,2.85,8.54
1738244465.7557485,26870,0,0,,0.0,-0.1,0.24,0.82,0.5,0.5,0.18,0.12,-3.64,3.86,8.15,0.0,0.0,0.0,-3.89,2.9,8.51
1738244465.7703502,26871,0,0,,0.0,-0.09,0.24,0.82,0.5,0.3,0.2,0.0,-4.2,3.93,8.38,0.0,0.0,0.0,-3.92,2.96,8.48
1738244465.7860305,26872,0,0,,0.0,-0.09,0.24,0.82,0.5,0.18,0.12,-0.02,-4.13,3.66,8.24,0.0,0.0,0.0,-3.94,2.98,8.46
1738244465.8059783,26873,0,0,,0.0,-0.1,0.24,0.82,0.51,0.02,0.06,-0.1,-4.37,2.9,8.65,0.0,0.0,0.0,-3.94,2.98,8.46
1738244465.8203757,26874,0,0,,0.0,-0.1,0.24,0.82,0.51,0.0,-0.03,-0.07,-4.09,2.67,8.66,0.0,0.0,0.0,-3.95,2.97,8.46
1738244465.8366477,26875,0,0,,0.0,-0.1,0.24,0.82,0.51,0.02,-0.01,-0.07,-3.79,2.52,8.88,0.0,0.0,0.0,-3.95,2.98,8.46
1738244465.8558674,26876,0,0,,0.0,-0.09,0.24,0.82,0.51,0.13,0.01,-0.01,-4.58,2.34,8.44,0.0,0.0,0.0,-3.95,2.99,8.46
1738244465.870224,26877,0,0,,0.0,-0.09,0.25,0.82,0.51,0.24,0.04,0.05,-4.14,2.36,8.27,0.0,0.0,0.0,-3.96,3.02,8.44
1738244465.8861077,26878,0,0,,0.0,-0.09,0.25,0.82,0.51,0.29,0.07,0.06,-4.52,2.82,8.42,0.0,0.0,0.0,-3.96,3.05,8.43
1738244465.9060574,26879,0,0,,0.0,-0.09,0.25,0.82,0.51,0.31,0.06,0.07,-3.9,3.42,8.39,0.0,0.0,0.0,-3.97,3.1,8.4
1738244465.9205625,26880,0,0,,0.0,-0.09,0.25,0.82,0.51,0.25,0.07,0.04,-3.9,3.42,8.36,0.0,0.0,0.0,-3.98,3.15,8.38
1738244465.9365928,26881,0,0,,0.0,-0.09,0.25,0.82,0.51,0.21,0.04,0.02,-3.66,3.79,8.44,0.0,0.0,0.0,-3.98,3.17,8.38
1738244465.9557161,26882,0,0,,0.0,-0.09,0.25,0.82,0.51,0.1,0.02,-0.04,-3.67,3.69,8.53,0.0,0.0,0.0,-3.98,3.19,8.37
1738244465.9702485,26883,0,0,,0.0,-0.09,0.26,0.82,0.51,0.03,-0.0,-0.06,-4.73,3.02,8.19,0.0,0.0,0.0,-3.99,3.19,8.36
1738244465.9865482,26884,0,0,,0.0,-0.09,0.26,0.82,0.51,0.02,0.0,-0.07,-4.11,3.5,8.43,0.0,0.0,0.0,-3.99,3.19,8.36
1738244466.006677,26885,0,0,,0.0,-0.09,0.26,0.82,0.51,-0.01,-0.02,-0.05,-4.37,3.17,8.38,0.0,0.0,0.0,-3.99,3.19,8.36
1738244466.0212588,26886,0,0,,0.0,-0.09,0.25,0.82,0.51,0.01,-0.03,-0.03,-3.6,2.66,8.49,0.0,0.0,0.0,-3.99,3.19,8.37
1738244466.0367246,26887,0,0,,0.0,-0.09,0.26,0.82,0.51,0.01,-0.03,-0.01,-4.78,2.94,8.33,0.0,0.0,0.0,-3.98,3.19,8.37
1738244466.0564032,26888,0,0,,0.0,-0.09,0.26,0.82,0.51,0.05,-0.02,0.01,-3.85,3.43,8.61,0.0,0.0,0.0,-3.98,3.19,8.36
1738244466.070429,26889,0,0,,0.0,-0.09,0.26,0.82,0.51,0.05,0.0,0.01,-3.81,3.08,8.46,0.0,0.0,0.0,-3.98,3.2,8.36
1738244466.086789,26890,0,0,,0.0,-0.09,0.26,0.82,0.51,0.04,-0.01,0.01,-4.18,3.35,8.36,0.0,0.0,0.0,-3.98,3.21,8.36
1738244466.1068997,26891,0,0,,0.0,-0.09,0.26,0.82,0.51,0.02,-0.01,-0.0,-3.74,3.23,8.47,0.0,0.0,0.0,-3.98,3.21,8.36
1738244466.1208405,26892,0,0,,0.0,-0.09,0.26,0.82,0.51,0.0,-0.03,-0.0,-4.35,3.22,8.3,0.0,0.0,0.0,-3.98,3.21,8.36
1738244466.137883,26893,0,0,,0.0,-0.09,0.26,0.82,0.51,-0.01,-0.0,-0.02,-4.42,2.72,8.2,0.0,0.0,0.0,-3.98,3.21,8.36
1738244466.1567967,26894,0,0,,0.0,-0.09,0.26,0.82,0.51,-0.01,-0.02,-0.01,-4.65,3.06,8.29,0.0,0.0,0.0,-3.97,3.21,8.36
1738244466.1724377,26895,0,0,,0.0,-0.09,0.26,0.82,0.51,0.0,-0.03,-0.01,-4.19,3.23,8.39,0.0,0.0,0.0,-3.97,3.21,8.36
1738244466.1884575,26896,0,0,,0.0,-0.09,0.26,0.82,0.51,0.01,-0.02,-0.01,-3.99,2.55,8.27,0.0,0.0,0.0,-3.97,3.21,8.36
1738244466.206941,26897,0,0,,0.0,-0.09,0.26,0.82,0.51,0.03,-0.01,0.0,-3.85,3.57,8.48,0.0,0.0,0.0,-3.97,3.21,8.36
1738244466.2212026,26898,0,0,,0.0,-0.09,0.26,0.82,0.51,0.04,0.01,0.0,-3.49,2.74,8.42,0.0,0.0,0.0,-3.97,3.22,8.36
1738244466.2374904,26899,0,0,,0.0,-0.09,0.26,0.82,0.51,0.04,-0.01,0.0,-3.73,3.57,8.35,0.0,0.0,0.0,-3.97,3.23,8.36
1738244466.2569687,26900,0,0,,0.0,-0.09,0.26,0.82,0.51,0.05,0.03,0.0,-3.68,2.84,8.43,0.0,0.0,0.0,-3.97,3.23,8.36
1738244466.27089,26901,0,0,,0.0,-0.09,0.26,0.82,0.51,0.05,0.01,0.01,-3.57,3.17,8.4,0.0,0.0,0.0,-3.97,3.24,8.35
1738244466.286929,26902,0,0,,0.0,-0.09,0.26,0.82,0.51,0.05,0.02,0.01,-4.37,3.16,8.19,0.0,0.0,0.0,-3.97,3.24,8.35
1738244466.3064985,26903,0,0,,0.0,-0.09,0.26,0.82,0.51,0.05,0.02,0.01,-3.94,3.39,8.24,0.0,0.0,0.0,-3.98,3.25,8.34
1738244466.3213735,26904,0,0,,0.0,-0.09,0.26,0.82,0.51,0.03,0.03,-0.01,-3.15,3.58,8.65,0.0,0.0,0.0,-3.99,3.25,8.34
1738244466.3379564,26905,0,0,,0.0,-0.09,0.26,0.82,0.51,0.03,0.01,-0.0,-4.49,3.19,8.23,0.0,0.0,0.0,-3.99,3.26,8.34
1738244466.3567584,26906,0,0,,0.0,-0.09,0.26,0.82,0.51,0.01,0.03,-0.02,-3.88,3.35,8.39,0.0,0.0,0.0,-3.99,3.26,8.33
1738244466.370906,26907,0,0,,0.0,-0.09,0.26,0.82,0.51,0.02,0.03,-0.01,-4.02,2.68,8.37,0.0,0.0,0.0,-4.0,3.26,8.33
1738244466.3874433,26908,0,0,,0.0,-0.09,0.26,0.82,0.51,0.01,0.04,-0.01,-3.9,3.37,8.56,0.0,0.0,0.0,-4.0,3.26,8.33
1738244466.4067733,26909,0,0,,0.0,-0.09,0.26,0.82,0.51,0.03,0.04,0.0,-4.84,3.1,8.22,0.0,0.0,0.0,-4.01,3.27,8.32
1738244466.421187,26910,0,0,,0.0,-0.09,0.26,0.82,0.51,0.03,0.03,0.01,-4.37,2.85,8.12,0.0,0.0,0.0,-4.01,3.27,8.32
1738244466.4376092,26911,0,0,,0.0,-0.09,0.26,0.82,0.51,0.03,0.05,-0.01,-4.81,3.02,8.22,0.0,0.0,0.0,-4.02,3.27,8.32
1738244466.4559252,26912,0,0,,0.0,-0.09,0.26,0.82,0.51,0.03,0.03,-0.0,-3.69,3.28,8.35,0.0,0.0,0.0,-4.03,3.28,8.31
1738244466.4702268,26913,0,0,,0.0,-0.09,0.26,0.82,0.51,0.02,0.03,-0.02,-3.81,3.21,8.28,0.0,0.0,0.0,-4.03,3.28,8.31
1738244466.4879763,26914,0,0,,0.0,-0.09,0.26,0.82,0.51,0.02,0.02,-0.02,-3.84,3.38,8.3,0.0,0.0,0.0,-4.04,3.28,8.3
1738244466.5070002,26915,0,0,,0.0,-0.09,0.26,0.82,0.51,0.02,0.03,-0.03,-3.6,3.34,8.46,0.0,0.0,0.0,-4.04,3.28,8.3
1738244466.5218318,26916,0,0,,0.0,-0.09,0.26,0.82,0.51,0.02,0.02,-0.02,-4.4,2.79,8.27,0.0,0.0,0.0,-4.04,3.28,8.3
1738244466.5379314,26917,0,0,,0.0,-0.09,0.26,0.82,0.51,0.02,0.03,-0.02,-3.83,3.45,8.3,0.0,0.0,0.0,-4.05,3.29,8.3
1738244466.5564198,26918,0,0,,0.0,-0.09,0.26,0.82,0.51,0.02,0.02,-0.01,-4.12,3.45,8.32,0.0,0.0,0.0,-4.05,3.29,8.3
1738244466.5711353,26919,0,0,,0.0,-0.09,0.26,0.82,0.51,0.02,0.01,-0.02,-3.66,3.17,8.39,0.0,0.0,0.0,-4.05,3.29,8.29
1738244466.588242,26920,0,0,,0.0,-0.09,0.26,0.82,0.51,0.01,0.0,-0.01,-4.45,3.29,8.26,0.0,0.0,0.0,-4.05,3.29,8.29
1738244466.6070273,26921,0,0,,0.0,-0.09,0.26,0.82,0.51,0.01,0.0,-0.02,-4.27,3.07,8.06,0.0,0.0,0.0,-4.06,3.29,8.29
1738244466.6217315,26922,0,0,,0.0,-0.09,0.26,0.82,0.51,0.0,0.03,-0.03,-3.83,3.08,8.29,0.0,0.0,0.0,-4.06,3.29,8.29
1738244466.637337,26923,0,0,,0.0,-0.09,0.26,0.82,0.51,0.01,0.02,-0.03,-4.08,3.17,8.41,0.0,0.0,0.0,-4.06,3.29,8.29
1738244466.6564813,26924,0,0,,0.0,-0.09,0.26,0.81,0.51,0.01,0.05,-0.04,-3.73,3.27,8.16,0.0,0.0,0.0,-4.08,3.28,8.29
1738244466.6711133,26925,0,0,,0.0,-0.09,0.26,0.81,0.51,0.02,0.07,-0.05,-3.62,3.35,8.24,0.0,0.0,0.0,-4.09,3.28,8.28
1738244466.6873772,26926,0,0,,0.0,-0.09,0.26,0.81,0.51,0.02,0.09,-0.06,-3.61,3.37,8.23,0.0,0.0,0.0,-4.1,3.28,8.28
1738244466.706058,26927,0,0,,0.0,-0.09,0.26,0.81,0.51,0.02,0.13,-0.08,-4.32,3.29,8.11,0.0,0.0,0.0,-4.12,3.27,8.26
1738244466.720803,26928,0,0,,0.0,-0.1,0.26,0.81,0.51,0.03,0.2,-0.12,-3.93,3.39,8.68,0.0,0.0,0.0,-4.16,3.27,8.25
1738244466.7372694,26929,0,0,,0.0,-0.1,0.27,0.81,0.51,0.03,0.25,-0.13,-3.45,3.79,8.45,0.0,0.0,0.0,-4.18,3.27,8.24
1738244466.7560215,26930,0,0,,0.0,-0.1,0.27,0.81,0.51,0.03,0.39,-0.21,-4.0,2.94,8.5,0.0,0.0,0.0,-4.25,3.26,8.21
1738244466.770679,26931,0,0,,0.0,-0.1,0.27,0.81,0.51,0.06,0.57,-0.25,-4.82,2.77,8.39,0.0,0.0,0.0,-4.35,3.25,8.16
1738244466.7872849,26932,0,0,,0.0,-0.11,0.27,0.81,0.51,0.08,0.67,-0.25,-3.37,3.18,8.67,0.0,0.0,0.0,-4.41,3.24,8.13
1738244466.806051,26933,0,0,,0.0,-0.11,0.28,0.81,0.51,0.12,0.88,-0.25,-4.57,2.68,8.38,0.0,0.0,0.0,-4.55,3.24,8.05
1738244466.8204908,26934,0,0,,0.0,-0.12,0.28,0.8,0.51,0.16,1.09,-0.26,-4.39,2.95,8.25,0.0,0.0,0.0,-4.73,3.24,7.95
1738244466.837041,26935,0,0,,0.0,-0.13,0.29,0.8,0.51,0.18,1.19,-0.26,-4.87,2.84,8.02,0.0,0.0,0.0,-4.83,3.24,7.89
1738244466.8556447,26936,0,0,,0.0,-0.14,0.29,0.8,0.51,0.22,1.35,-0.29,-4.39,3.06,7.98,0.0,0.0,0.0,-5.05,3.25,7.75
1738244466.8704386,26937,0,0,,0.0,-0.15,0.3,0.79,0.51,0.24,1.53,-0.35,-4.74,3.3,7.92,0.0,0.0,0.0,-5.29,3.25,7.58
1738244466.8867586,26938,0,0,,0.0,-0.15,0.31,0.79,0.51,0.25,1.58,-0.38,-5.52,3.4,7.42,0.0,0.0,0.0,-5.41,3.25,7.49
1738244466.9061577,26939,0,0,,0.0,-0.17,0.32,0.79,0.51,0.21,1.72,-0.52,-5.46,3.78,7.48,0.0,0.0,0.0,-5.69,3.23,7.3
1738244466.9210336,26940,0,0,,0.0,-0.18,0.33,0.78,0.5,0.08,1.84,-0.67,-6.09,3.54,7.47,0.0,0.0,0.0,-5.98,3.17,7.09
1738244466.9371994,26941,0,0,,0.0,-0.19,0.33,0.78,0.5,-0.02,1.91,-0.77,-5.99,3.86,7.33,0.0,0.0,0.0,-6.13,3.13,6.98
1738244466.9551651,26942,0,0,,0.0,-0.21,0.34,0.77,0.5,-0.11,2.06,-0.97,-7.64,1.87,7.16,0.0,0.0,0.0,-6.45,3.0,6.73
1738244466.9707508,26943,0,0,,0.0,-0.23,0.35,0.76,0.51,-0.04,2.24,-1.1,-7.97,4.45,8.11,0.0,0.0,0.0,-6.81,2.87,6.43
1738244466.987064,26944,0,0,,0.0,-0.24,0.35,0.75,0.51,0.27,2.58,-1.46,-7.95,4.08,7.63,0.0,0.0,0.0,-7.01,2.78,6.25
1738244467.0059574,26945,0,0,,0.0,-0.26,0.36,0.73,0.51,0.12,2.75,-1.88,-7.18,3.9,8.23,0.0,0.0,0.0,-7.43,2.55,5.86
1738244467.0207546,26946,0,0,,0.0,-0.29,0.37,0.71,0.52,0.1,2.9,-2.09,-8.14,4.42,8.48,0.0,0.0,0.0,-7.86,2.23,5.42
1738244467.0374823,26947,0,0,,0.0,-0.31,0.38,0.7,0.52,-0.01,3.25,-2.54,-8.11,4.59,8.63,0.0,0.0,0.0,-8.07,2.03,5.17
1738244467.0561423,26948,0,0,,0.0,-0.34,0.38,0.68,0.52,-0.25,3.58,-2.89,-8.33,3.72,7.83,0.0,0.0,0.0,-8.5,1.57,4.61
1738244467.0709488,26949,0,0,,0.0,-0.38,0.39,0.65,0.53,-0.57,3.85,-3.14,-7.42,3.56,6.13,0.0,0.0,0.0,-8.9,1.0,3.98
1738244467.0873423,26950,0,0,,0.0,-0.4,0.39,0.64,0.53,-0.86,3.98,-3.25,-7.06,1.42,5.69,0.0,0.0,0.0,-9.07,0.69,3.64
1738244467.106197,26951,0,0,,0.0,-0.45,0.39,0.61,0.53,-1.02,4.24,-3.27,-7.35,-0.92,4.4,0.0,0.0,0.0,-9.36,0.04,2.9
1738244467.1214812,26952,0,0,,0.0,-0.49,0.39,0.57,0.53,-0.88,4.52,-3.11,-8.07,-0.29,3.04,0.0,0.0,0.0,-9.56,-0.58,2.08
1738244467.13755,26953,0,0,,0.0,-0.51,0.4,0.56,0.52,-0.97,4.59,-2.95,-8.28,-0.55,2.17,0.0,0.0,0.0,-9.62,-0.87,1.65
1738244467.1563323,26954,0,0,,0.0,-0.55,0.4,0.52,0.51,-1.01,4.94,-2.45,-10.87,-1.45,1.79,0.0,0.0,0.0,-9.68,-1.38,0.72
1738244467.1712744,26955,0,0,,0.0,-0.58,0.41,0.49,0.5,-0.81,4.97,-2.15,-14.19,0.64,4.92,0.0,0.0,0.0,-9.64,-1.76,-0.2
1738244467.1876206,26956,0,0,,0.0,-0.6,0.42,0.48,0.49,-0.58,4.08,-1.59,-13.22,1.56,5.74,0.0,0.0,0.0,-9.6,-1.9,-0.59
1738244467.2063663,26957,0,0,,0.0,-0.62,0.42,0.46,0.48,-0.53,2.14,-0.9,-11.95,2.08,5.0,0.0,0.0,0.0,-9.51,-2.1,-1.1
1738244467.221712,26958,0,0,,0.0,-0.62,0.42,0.45,0.48,-0.5,1.13,-0.59,-8.9,1.59,2.69,0.0,0.0,0.0,-9.48,-2.16,-1.25
1738244467.237817,26959,0,0,,0.0,-0.62,0.41,0.46,0.48,-0.69,-0.54,0.16,-8.65,0.7,2.43,0.0,0.0,0.0,-9.49,-2.14,-1.21
1738244467.255753,26960,0,0,,0.0,-0.62,0.41,0.47,0.48,-0.35,-1.54,0.98,-9.04,1.19,2.94,0.0,0.0,0.0,-9.55,-1.98,-0.99
1738244467.2712853,26961,0,0,,0.0,-0.6,0.41,0.49,0.48,-0.21,-2.09,1.37,-10.26,0.96,5.12,0.0,0.0,0.0,-9.64,-1.7,-0.55
1738244467.28812,26962,0,0,,0.0,-0.59,0.4,0.51,0.48,-0.54,-3.5,1.9,-10.44,-0.79,4.59,0.0,0.0,0.0,-9.68,-1.52,-0.23
1738244467.3058143,26963,0,0,,0.0,-0.56,0.4,0.54,0.49,0.33,-4.98,2.43,-5.27,-2.77,-0.32,0.0,0.0,0.0,-9.72,-1.09,0.63
1738244467.3215618,26964,0,0,,0.0,-0.52,0.39,0.58,0.5,1.11,-5.13,2.58,-5.82,0.06,0.88,0.0,0.0,0.0,-9.65,-0.59,1.59
1738244467.3373494,26965,0,0,,0.0,-0.5,0.39,0.59,0.5,0.93,-4.69,2.06,-6.83,-1.01,2.67,0.0,0.0,0.0,-9.58,-0.38,2.04
1738244467.3554986,26966,0,0,,0.0,-0.46,0.37,0.62,0.51,0.34,-4.56,1.33,-7.01,-0.68,3.18,0.0,0.0,0.0,-9.37,-0.09,2.87
1738244467.3714197,26967,0,0,,0.0,-0.43,0.36,0.64,0.52,0.47,-4.62,1.16,-6.83,1.16,3.31,0.0,0.0,0.0,-9.07,0.14,3.7
1738244467.3875213,26968,0,0,,0.0,-0.41,0.35,0.65,0.53,0.7,-4.58,1.05,-7.52,1.8,3.48,0.0,0.0,0.0,-8.9,0.25,4.1
1738244467.4054148,26969,0,0,,0.0,-0.37,0.34,0.68,0.54,0.72,-4.51,1.21,-7.22,2.78,2.51,0.0,0.0,0.0,-8.49,0.51,4.86
1738244467.4213035,26970,0,0,,0.0,-0.34,0.32,0.7,0.55,0.67,-4.32,1.43,-7.87,1.89,2.99,0.0,0.0,0.0,-8.05,0.82,5.52
1738244467.4378273,26971,0,0,,0.0,-0.32,0.32,0.71,0.55,0.65,-3.44,2.07,-8.27,1.78,3.63,0.0,0.0,0.0,-7.85,1.01,5.78
1738244467.4553642,26972,0,0,,0.0,-0.29,0.31,0.72,0.54,0.65,-3.22,2.17,-9.92,0.81,5.98,0.0,0.0,0.0,-7.41,1.4,6.26
1738244467.4715762,26973,0,0,,0.0,-0.25,0.31,0.74,0.54,0.66,-3.12,2.23,-9.69,-0.05,6.13,0.0,0.0,0.0,-6.95,1.79,6.67
1738244467.4878578,26974,0,0,,0.0,-0.24,0.3,0.75,0.54,0.59,-3.03,2.13,-9.61,-0.5,6.38,0.0,0.0,0.0,-6.71,1.97,6.86
1738244467.5056753,26975,0,0,,0.0,-0.21,0.3,0.76,0.53,0.63,-2.88,1.88,-9.94,0.16,7.3,0.0,0.0,0.0,-6.23,2.3,7.2
1738244467.5215542,26976,0,0,,0.0,-0.18,0.29,0.78,0.53,0.63,-2.84,1.77,-10.06,0.64,7.48,0.0,0.0,0.0,-5.75,2.58,7.5
1738244467.5379937,26977,0,0,,0.0,-0.17,0.29,0.78,0.53,0.59,-2.73,1.56,-10.02,1.24,7.05,0.0,0.0,0.0,-5.51,2.71,7.63
1738244467.55593,26978,0,0,,0.0,-0.14,0.28,0.79,0.52,0.61,-2.49,1.44,-9.82,1.53,6.74,0.0,0.0,0.0,-5.05,2.95,7.86
1738244467.571408,26979,0,0,,0.0,-0.12,0.28,0.8,0.52,0.62,-2.32,1.37,-9.51,1.35,6.4,0.0,0.0,0.0,-4.63,3.17,8.04
1738244467.5875747,26980,0,0,,0.0,-0.1,0.28,0.8,0.52,0.56,-1.94,1.21,-9.38,0.94,6.37,0.0,0.0,0.0,-4.44,3.27,8.1
1738244467.605987,26981,0,0,,0.0,-0.09,0.27,0.81,0.51,0.63,-1.5,1.04,-9.83,0.14,6.95,0.0,0.0,0.0,-4.11,3.45,8.2
1738244467.6218946,26982,0,0,,0.0,-0.07,0.27,0.81,0.51,0.66,-1.33,0.9,-9.18,-0.57,6.15,0.0,0.0,0.0,-3.85,3.62,8.25
1738244467.637888,26983,0,0,,0.0,-0.07,0.27,0.81,0.51,0.43,-0.81,0.23,-8.77,-0.6,5.48,0.0,0.0,0.0,-3.78,3.66,8.27
1738244467.6559432,26984,0,0,,0.0,-0.06,0.27,0.81,0.51,0.31,-0.51,-0.03,-7.63,0.21,2.58,0.0,0.0,0.0,-3.67,3.73,8.29
1738244467.6718068,26985,0,0,,0.0,-0.06,0.27,0.81,0.52,0.11,-0.1,-0.29,-7.91,-0.25,1.9,0.0,0.0,0.0,-3.73,3.69,8.28
1738244467.6879082,26986,0,0,,0.0,-0.07,0.27,0.81,0.52,-0.44,1.52,-0.62,-9.27,1.32,3.56,0.0,0.0,0.0,-3.87,3.63,8.24
1738244467.706018,26987,0,0,,0.0,-0.09,0.27,0.81,0.52,-2.21,1.19,-0.54,-11.48,4.24,13.19,0.0,0.0,0.0,-4.12,3.38,8.22
1738244467.7217185,26988,0,0,,0.0,-0.09,0.26,0.81,0.51,-1.8,-0.28,0.09,2.1,-0.79,7.89,0.0,0.0,0.0,-3.97,3.23,8.36
1738244467.7380292,26989,0,0,,0.0,-0.08,0.25,0.81,0.51,0.1,-1.1,0.39,2.48,5.59,7.18,0.0,0.0,0.0,-3.87,3.25,8.4
1738244467.756052,26990,0,0,,0.0,-0.08,0.25,0.82,0.51,-0.44,-0.12,-0.09,-0.39,8.03,9.13,0.0,0.0,0.0,-3.76,3.23,8.45
1738244467.7722123,26991,0,0,,0.0,-0.08,0.25,0.82,0.52,-0.44,-0.12,-0.09,-6.05,1.77,9.19,0.0,0.0,0.0,-3.78,3.13,8.48
1738244467.7882452,26992,0,0,,0.0,-0.08,0.25,0.82,0.52,-0.4,0.15,-0.21,-6.07,1.01,8.79,0.0,0.0,0.0,-3.8,3.09,8.49
1738244467.805817,26993,0,0,,0.0,-0.08,0.24,0.82,0.52,0.04,0.03,0.02,-4.33,1.19,8.53,0.0,0.0,0.0,-3.82,3.05,8.49
1738244467.8223255,26994,0,0,,0.0,-0.08,0.25,0.82,0.52,0.19,0.05,0.09,-3.43,2.08,8.75,0.0,0.0,0.0,-3.82,3.1,8.47
1738244467.8378925,26995,0,0,,0.0,-0.08,0.25,0.82,0.52,0.4,0.14,0.13,-3.27,2.28,8.45,0.0,0.0,0.0,-3.83,3.14,8.45
1738244467.856223,26996,0,0,,0.0,-0.08,0.25,0.82,0.51,0.42,0.19,0.1,-3.94,3.65,8.52,0.0,0.0,0.0,-3.85,3.22,8.42
1738244467.8719094,26997,0,0,,0.0,-0.08,0.26,0.81,0.51,0.33,0.16,0.07,-4.46,3.66,8.3,0.0,0.0,0.0,-3.88,3.26,8.39
1738244467.8882887,26998,0,0,,0.0,-0.08,0.26,0.81,0.51,0.15,0.1,0.0,-4.15,3.98,8.31,0.0,0.0,0.0,-3.88,3.28,8.38
1738244467.9060483,26999,0,0,,0.0,-0.08,0.26,0.81,0.51,0.08,0.09,-0.04,-4.84,3.38,8.18,0.0,0.0,0.0,-3.9,3.28,8.37
1738244467.9225261,27000,0,0,,0.0,-0.08,0.26,0.81,0.51,0.01,0.03,-0.05,-4.26,2.88,8.42,0.0,0.0,0.0,-3.91,3.28,8.37
1738244467.9378812,27001,0,0,,0.0,-0.08,0.26,0.81,0.51,0.06,0.01,-0.02,-4.3,2.57,8.47,0.0,0.0,0.0,-3.91,3.29,8.36
1738244467.9565094,27002,0,0,,0.0,-0.08,0.26,0.81,0.51,0.11,0.01,0.0,-4.15,2.55,8.38,0.0,0.0,0.0,-3.91,3.31,8.35
1738244467.972705,27003,0,0,,0.0,-0.08,0.26,0.81,0.51,0.2,0.05,0.04,-3.74,2.97,8.76,0.0,0.0,0.0,-3.91,3.35,8.34
1738244467.9882197,27004,0,0,,0.0,-0.08,0.26,0.81,0.51,0.23,0.06,0.07,-4.06,3.15,8.21,0.0,0.0,0.0,-3.91,3.37,8.33
1738244468.0064857,27005,0,0,,0.0,-0.08,0.26,0.81,0.51,0.2,0.06,0.06,-3.85,3.55,8.39,0.0,0.0,0.0,-3.92,3.41,8.31
1738244468.0226684,27006,0,0,,0.0,-0.08,0.27,0.81,0.51,0.14,0.05,0.04,-3.74,3.47,8.2,0.0,0.0,0.0,-3.92,3.43,8.3
1738244468.0388815,27007,0,0,,0.0,-0.08,0.27,0.81,0.51,0.06,0.03,-0.01,-4.04,3.77,8.31,0.0,0.0,0.0,-3.93,3.43,8.3
1738244468.0572417,27008,0,0,,0.0,-0.08,0.27,0.81,0.51,0.02,0.01,-0.03,-4.78,3.44,8.02,0.0,0.0,0.0,-3.93,3.43,8.3
1738244468.073062,27009,0,0,,0.0,-0.08,0.27,0.81,0.51,-0.04,-0.03,-0.05,-4.43,3.02,8.01,0.0,0.0,0.0,-3.93,3.42,8.3
1738244468.0888126,27010,0,0,,0.0,-0.08,0.26,0.81,0.51,-0.07,-0.02,-0.08,-4.84,3.03,8.2,0.0,0.0,0.0,-3.93,3.41,8.3
1738244468.10646,27011,0,0,,0.0,-0.08,0.26,0.81,0.51,-0.07,-0.05,-0.06,-4.25,3.17,8.32,0.0,0.0,0.0,-3.93,3.39,8.31
1738244468.1231701,27012,0,0,,0.0,-0.08,0.26,0.81,0.51,-0.06,-0.03,-0.04,-4.59,2.66,8.3,0.0,0.0,0.0,-3.92,3.38,8.32
1738244468.1382518,27013,0,0,,0.0,-0.08,0.26,0.81,0.51,0.0,-0.03,0.0,-3.8,2.9,8.65,0.0,0.0,0.0,-3.92,3.38,8.32
1738244468.1575427,27014,0,0,,0.0,-0.08,0.26,0.81,0.51,0.03,0.0,0.01,-3.57,3.32,8.65,0.0,0.0,0.0,-3.92,3.39,8.32
1738244468.1731653,27015,0,0,,0.0,-0.08,0.26,0.81,0.51,0.06,0.0,0.03,-4.82,3.25,8.21,0.0,0.0,0.0,-3.92,3.4,8.31
1738244468.188907,27016,0,0,,0.0,-0.08,0.26,0.81,0.51,0.04,-0.01,0.02,-4.1,3.68,8.41,0.0,0.0,0.0,-3.92,3.41,8.31
1738244468.2069678,27017,0,0,,0.0,-0.08,0.26,0.81,0.51,0.03,-0.01,0.01,-4.34,3.55,8.34,0.0,0.0,0.0,-3.92,3.41,8.31
1738244468.223226,27018,0,0,,0.0,-0.08,0.26,0.81,0.51,0.01,-0.01,-0.0,-3.95,2.73,8.23,0.0,0.0,0.0,-3.91,3.41,8.31
1738244468.2432709,27019,0,0,,0.0,-0.08,0.26,0.81,0.51,-0.01,0.01,-0.02,-4.97,3.19,8.08,0.0,0.0,0.0,-3.91,3.41,8.31
1738244468.260379,27020,0,0,,0.0,-0.08,0.26,0.81,0.51,-0.0,-0.01,-0.02,-3.94,3.45,8.34,0.0,0.0,0.0,-3.91,3.41,8.31
1738244468.2748635,27021,0,0,,0.0,-0.08,0.26,0.81,0.52,0.01,-0.02,-0.01,-3.71,2.9,8.4,0.0,0.0,0.0,-3.91,3.41,8.31
1738244468.2940886,27022,0,0,,0.0,-0.08,0.26,0.81,0.52,0.02,-0.02,-0.01,-4.33,3.21,8.28,0.0,0.0,0.0,-3.91,3.41,8.31
1738244468.3120217,27023,0,0,,0.0,-0.08,0.26,0.81,0.52,0.05,-0.01,-0.01,-3.83,3.21,8.41,0.0,0.0,0.0,-3.91,3.42,8.31
1738244468.326501,27024,0,0,,0.0,-0.08,0.26,0.81,0.52,0.07,0.01,0.0,-4.18,3.18,8.27,0.0,0.0,0.0,-3.91,3.43,8.31
1738244468.342132,27025,0,0,,0.0,-0.08,0.27,0.81,0.52,0.07,-0.01,0.01,-4.7,2.73,8.14,0.0,0.0,0.0,-3.91,3.43,8.3
1738244468.3592036,27026,0,0,,0.0,-0.08,0.27,0.81,0.52,0.07,0.01,0.0,-4.59,3.18,8.2,0.0,0.0,0.0,-3.91,3.44,8.3
1738244468.3746474,27027,0,0,,0.0,-0.08,0.27,0.81,0.52,0.07,-0.0,0.01,-4.01,3.58,8.37,0.0,0.0,0.0,-3.91,3.45,8.3
1738244468.3896751,27028,0,0,,0.0,-0.08,0.27,0.81,0.52,0.06,-0.0,0.01,-4.15,3.54,8.35,0.0,0.0,0.0,-3.91,3.46,8.29
1738244468.4079504,27029,0,0,,0.0,-0.08,0.27,0.81,0.52,0.03,-0.01,-0.0,-3.84,3.63,8.44,0.0,0.0,0.0,-3.91,3.46,8.29
1738244468.4237678,27030,0,0,,0.0,-0.08,0.27,0.81,0.52,0.02,0.01,-0.02,-3.83,3.13,8.29,0.0,0.0,0.0,-3.91,3.46,8.29
1738244468.442948,27031,0,0,,0.0,-0.08,0.27,0.81,0.52,0.0,-0.01,-0.02,-3.81,3.52,8.5,0.0,0.0,0.0,-3.91,3.46,8.29
1738244468.460312,27032,0,0,,0.0,-0.08,0.27,0.81,0.52,-0.01,0.01,-0.03,-3.84,3.05,8.39,0.0,0.0,0.0,-3.91,3.46,8.29
1738244468.4750564,27033,0,0,,0.0,-0.08,0.27,0.81,0.52,-0.0,0.01,-0.02,-3.81,3.23,8.3,0.0,0.0,0.0,-3.92,3.46,8.29
1738244468.490202,27034,0,0,,0.0,-0.08,0.27,0.81,0.52,0.0,0.01,-0.02,-4.48,3.08,8.25,0.0,0.0,0.0,-3.92,3.45,8.29
1738244468.5082304,27035,0,0,,0.0,-0.08,0.27,0.81,0.52,0.01,0.01,-0.02,-3.73,3.34,8.35,0.0,0.0,0.0,-3.92,3.45,8.29
1738244468.524062,27036,0,0,,0.0,-0.08,0.27,0.81,0.52,-0.0,0.01,-0.03,-3.27,3.5,8.44,0.0,0.0,0.0,-3.93,3.45,8.29
1738244468.5393968,27037,0,0,,0.0,-0.08,0.27,0.81,0.52,0.01,0.02,-0.03,-4.58,3.14,8.17,0.0,0.0,0.0,-3.93,3.45,8.29
1738244468.5574315,27038,0,0,,0.0,-0.08,0.27,0.81,0.52,0.01,0.01,-0.03,-3.75,3.38,8.39,0.0,0.0,0.0,-3.93,3.44,8.29
1738244468.5737712,27039,0,0,,0.0,-0.08,0.27,0.81,0.52,0.02,0.0,-0.03,-4.16,2.96,8.32,0.0,0.0,0.0,-3.93,3.45,8.29
1738244468.5898848,27040,0,0,,0.0,-0.08,0.27,0.81,0.52,0.03,0.0,-0.03,-4.03,3.33,8.35,0.0,0.0,0.0,-3.93,3.45,8.29
1738244468.6076093,27041,0,0,,0.0,-0.08,0.27,0.81,0.52,0.04,-0.01,-0.03,-4.52,3.18,8.25,0.0,0.0,0.0,-3.94,3.45,8.28
1738244468.6245189,27042,0,0,,0.0,-0.08,0.27,0.81,0.52,0.05,-0.02,-0.02,-3.64,3.5,8.5,0.0,0.0,0.0,-3.94,3.45,8.28
1738244468.6395774,27043,0,0,,0.0,-0.08,0.27,0.81,0.52,0.04,0.01,-0.04,-4.97,3.02,8.19,0.0,0.0,0.0,-3.94,3.45,8.28
1738244468.657775,27044,0,0,,0.0,-0.08,0.27,0.81,0.52,0.04,-0.01,-0.04,-3.82,3.25,8.22,0.0,0.0,0.0,-3.94,3.46,8.28
1738244468.6742377,27045,0,0,,0.0,-0.08,0.27,0.81,0.52,0.03,0.0,-0.05,-4.29,3.18,8.38,0.0,0.0,0.0,-3.95,3.46,8.27
1738244468.689638,27046,0,0,,0.0,-0.08,0.27,0.81,0.52,0.03,-0.0,-0.06,-3.61,3.52,8.29,0.0,0.0,0.0,-3.95,3.45,8.27
1738244468.7078729,27047,0,0,,0.0,-0.08,0.27,0.81,0.52,0.02,0.02,-0.08,-3.59,3.41,8.34,0.0,0.0,0.0,-3.96,3.45,8.27
1738244468.724539,27048,0,0,,0.0,-0.08,0.27,0.81,0.52,0.02,0.04,-0.09,-3.93,3.2,8.53,0.0,0.0,0.0,-3.98,3.45,8.26
1738244468.7397187,27049,0,0,,0.0,-0.08,0.27,0.81,0.52,0.01,0.1,-0.12,-3.5,3.52,8.16,0.0,0.0,0.0,-3.99,3.44,8.26
1738244468.7579648,27050,0,0,,0.0,-0.08,0.27,0.81,0.52,0.01,0.15,-0.14,-3.81,3.5,8.3,0.0,0.0,0.0,-4.03,3.43,8.25
1738244468.7746727,27051,0,0,,0.0,-0.08,0.27,0.8,0.52,0.01,0.27,-0.18,-3.83,3.69,8.71,0.0,0.0,0.0,-4.09,3.42,8.22
1738244468.789669,27052,0,0,,0.0,-0.09,0.27,0.8,0.52,0.02,0.44,-0.24,-3.6,3.6,8.27,0.0,0.0,0.0,-4.13,3.41,8.2
1738244468.8081172,27053,0,0,,0.0,-0.09,0.28,0.8,0.52,0.04,0.56,-0.29,-4.26,2.87,8.35,0.0,0.0,0.0,-4.25,3.39,8.15
1738244468.8249717,27054,0,0,,0.0,-0.1,0.28,0.8,0.52,0.08,0.8,-0.33,-4.5,2.74,8.2,0.0,0.0,0.0,-4.41,3.38,8.07
1738244468.8402636,27055,0,0,,0.0,-0.1,0.28,0.8,0.52,0.13,1.02,-0.3,-4.18,3.04,8.62,0.0,0.0,0.0,-4.49,3.38,8.03
1738244468.8582656,27056,0,0,,0.0,-0.11,0.29,0.79,0.52,0.15,1.13,-0.3,-4.69,2.99,8.17,0.0,0.0,0.0,-4.7,3.37,7.91
1738244468.8746645,27057,0,0,,0.0,-0.12,0.3,0.79,0.52,0.15,1.32,-0.35,-4.55,3.17,8.3,0.0,0.0,0.0,-4.93,3.36,7.77
1738244468.889959,27058,0,0,,0.0,-0.13,0.3,0.79,0.52,0.12,1.48,-0.42,-5.01,3.17,8.14,0.0,0.0,0.0,-5.05,3.35,7.7
1738244468.9083107,27059,0,0,,0.0,-0.14,0.31,0.78,0.52,0.12,1.52,-0.44,-5.17,3.12,7.5,0.0,0.0,0.0,-5.31,3.32,7.54
1738244468.9250772,27060,0,0,,0.0,-0.15,0.32,0.78,0.52,0.08,1.64,-0.53,-6.05,2.78,7.52,0.0,0.0,0.0,-5.58,3.27,7.36
1738244468.9401586,27061,0,0,,0.0,-0.16,0.32,0.78,0.52,0.05,1.69,-0.61,-5.59,3.23,7.32,0.0,0.0,0.0,-5.72,3.24,7.26
1738244468.9584503,27062,0,0,,0.0,-0.18,0.33,0.77,0.52,0.02,1.73,-0.67,-5.95,3.2,7.36,0.0,0.0,0.0,-6.01,3.16,7.06
1738244468.974928,27063,0,0,,0.0,-0.19,0.34,0.76,0.52,-0.06,1.78,-0.81,-5.85,3.48,6.81,0.0,0.0,0.0,-6.3,3.05,6.85
1738244468.9901423,27064,0,0,,0.0,-0.2,0.34,0.76,0.52,-0.1,1.81,-0.87,-6.36,2.89,7.09,0.0,0.0,0.0,-6.45,2.99,6.75
1738244469.0086424,27065,0,0,,0.0,-0.22,0.35,0.75,0.52,-0.05,1.86,-0.92,-7.95,1.64,7.23,0.0,0.0,0.0,-6.75,2.87,6.5
1738244469.0248284,27066,0,0,,0.0,-0.24,0.36,0.74,0.52,0.15,2.04,-1.11,-7.61,3.28,7.22,0.0,0.0,0.0,-7.07,2.73,6.21
1738244469.0403113,27067,0,0,,0.0,-0.25,0.36,0.73,0.52,-0.02,2.27,-1.39,-8.12,3.12,7.62,0.0,0.0,0.0,-7.24,2.63,6.05
1738244469.058395,27068,0,0,,0.0,-0.27,0.37,0.72,0.53,-0.05,2.25,-1.49,-7.41,3.26,7.53,0.0,0.0,0.0,-7.58,2.4,5.73
1738244469.0751333,27069,0,0,,0.0,-0.29,0.37,0.7,0.53,-0.16,2.41,-1.74,-7.56,4.05,7.0,0.0,0.0,0.0,-7.92,2.11,5.37
1738244469.0903385,27070,0,0,,0.0,-0.31,0.38,0.69,0.53,-0.28,2.61,-1.98,-8.21,2.97,7.3,0.0,0.0,0.0,-8.09,1.94,5.17
1738244469.109147,27071,0,0,,0.0,-0.34,0.38,0.68,0.53,-0.34,2.77,-2.09,-9.04,2.44,7.67,0.0,0.0,0.0,-8.44,1.57,4.73
1738244469.1256952,27072,0,0,,0.0,-0.37,0.39,0.66,0.53,-0.4,2.98,-2.23,-8.4,3.07,7.41,0.0,0.0,0.0,-8.76,1.15,4.24
1738244469.1405494,27073,0,0,,0.0,-0.38,0.39,0.65,0.53,-0.67,3.23,-2.36,-8.68,2.29,6.9,0.0,0.0,0.0,-8.91,0.92,3.97
1738244469.1588898,27074,0,0,,0.0,-0.42,0.39,0.62,0.53,-0.69,3.35,-2.39,-8.41,1.02,5.3,0.0,0.0,0.0,-9.19,0.44,3.38
1738244469.1753724,27075,0,0,,0.0,-0.45,0.4,0.6,0.53,-0.95,3.66,-2.57,-8.45,0.03,4.55,0.0,0.0,0.0,-9.42,-0.08,2.7
1738244469.1904798,27076,0,0,,0.0,-0.47,0.4,0.58,0.53,-1.01,4.24,-2.69,-9.31,-1.07,2.13,0.0,0.0,0.0,-9.52,-0.35,2.31
1738244469.2089102,27077,0,0,,0.0,-0.51,0.4,0.55,0.52,-0.96,4.7,-2.71,-12.77,-1.91,1.08,0.0,0.0,0.0,-9.66,-0.88,1.4
1738244469.2259316,27078,0,0,,0.0,-0.55,0.41,0.52,0.51,-0.64,4.93,-2.43,-13.86,-0.93,2.3,0.0,0.0,0.0,-9.7,-1.31,0.49
1738244469.2409687,27079,0,0,,0.0,-0.57,0.42,0.5,0.5,-0.4,3.93,-1.76,-13.28,0.35,5.23,0.0,0.0,0.0,-9.69,-1.48,0.12
1738244469.2589793,27080,0,0,,0.0,-0.59,0.42,0.48,0.5,-0.38,3.23,-1.52,-10.83,0.45,5.5,0.0,0.0,0.0,-9.63,-1.75,-0.42
1738244469.2755952,27081,0,0,,0.0,-0.6,0.42,0.47,0.49,-0.48,1.83,-1.2,-9.67,0.63,5.71,0.0,0.0,0.0,-9.58,-1.95,-0.71
1738244469.2908578,27082,0,0,,0.0,-0.6,0.42,0.47,0.49,-0.4,0.5,-0.76,-8.07,1.46,4.4,0.0,0.0,0.0,-9.56,-2.02,-0.76
1738244469.3091576,27083,0,0,,0.0,-0.61,0.41,0.47,0.49,-0.37,0.02,-0.48,-6.56,1.13,2.97,0.0,0.0,0.0,-9.55,-2.07,-0.74
1738244469.325521,27084,0,0,,0.0,-0.6,0.41,0.47,0.5,-0.16,-0.73,0.17,-6.22,0.92,2.97,0.0,0.0,0.0,-9.58,-2.0,-0.58
1738244469.340668,27085,0,0,,0.0,-0.59,0.41,0.48,0.5,0.4,-1.54,1.03,-7.61,1.89,4.74,0.0,0.0,0.0,-9.6,-1.91,-0.43
1738244469.3592234,27086,0,0,,0.0,-0.57,0.41,0.5,0.5,0.48,-2.18,1.5,-6.41,1.11,3.02,0.0,0.0,0.0,-9.67,-1.6,0.04
1738244469.375814,27087,0,0,,0.0,-0.55,0.41,0.53,0.51,0.09,-3.1,1.88,-5.54,-0.7,2.03,0.0,0.0,0.0,-9.7,-1.27,0.64
1738244469.3913777,27088,0,0,,0.0,-0.54,0.4,0.54,0.51,0.11,-3.53,1.42,-6.68,-2.46,1.81,0.0,0.0,0.0,-9.69,-1.13,0.97
1738244469.4093022,27089,0,0,,0.0,-0.51,0.39,0.56,0.52,0.15,-3.74,1.18,-6.55,-1.02,1.42,0.0,0.0,0.0,-9.61,-0.92,1.68
1738244469.4258344,27090,0,0,,0.0,-0.49,0.37,0.59,0.53,0.1,-3.87,0.93,-6.94,-0.53,1.68,0.0,0.0,0.0,-9.47,-0.74,2.4
1738244469.4409242,27091,0,0,,0.0,-0.47,0.37,0.6,0.53,0.2,-3.86,1.07,-6.7,0.13,2.41,0.0,0.0,0.0,-9.38,-0.64,2.76
1738244469.458819,27092,0,0,,0.0,-0.45,0.35,0.62,0.54,0.32,-3.79,1.16,-7.47,0.87,3.19,0.0,0.0,0.0,-9.17,-0.41,3.44
1738244469.4759233,27093,0,0,,0.0,-0.42,0.34,0.64,0.55,0.37,-3.75,1.24,-8.14,1.52,3.96,0.0,0.0,0.0,-8.9,-0.16,4.1
1738244469.4908183,27094,0,0,,0.0,-0.4,0.34,0.65,0.55,0.35,-3.76,1.36,-8.38,2.8,4.0,0.0,0.0,0.0,-8.75,-0.03,4.42
1738244469.5090876,27095,0,0,,0.0,-0.37,0.33,0.67,0.55,0.37,-3.68,1.54,-7.71,3.06,3.39,0.0,0.0,0.0,-8.41,0.27,5.02
1738244469.5262706,27096,0,0,,0.0,-0.34,0.32,0.69,0.55,0.47,-3.36,1.96,-7.92,3.0,3.61,0.0,0.0,0.0,-8.06,0.65,5.54
1738244469.5408864,27097,0,0,,0.0,-0.32,0.32,0.7,0.55,0.62,-3.02,2.32,-8.97,1.75,5.39,0.0,0.0,0.0,-7.88,0.87,5.76
1738244469.5594862,27098,0,0,,0.0,-0.29,0.31,0.72,0.54,0.68,-2.93,2.37,-9.27,0.49,6.53,0.0,0.0,0.0,-7.49,1.29,6.18
1738244469.5761724,27099,0,0,,0.0,-0.26,0.31,0.74,0.54,0.83,-2.91,2.15,-9.5,0.28,7.16,0.0,0.0,0.0,-7.07,1.69,6.57
1738244469.5911603,27100,0,0,,0.0,-0.25,0.31,0.74,0.54,0.92,-3.01,1.87,-9.12,0.38,7.9,0.0,0.0,0.0,-6.84,1.88,6.76
1738244469.6103246,27101,0,0,,0.0,-0.21,0.3,0.76,0.54,0.94,-3.01,1.75,-8.89,0.57,8.45,0.0,0.0,0.0,-6.37,2.22,7.11
1738244469.626982,27102,0,0,,0.0,-0.18,0.3,0.77,0.54,0.96,-2.97,1.56,-8.76,0.71,8.98,0.0,0.0,0.0,-5.88,2.54,7.42
1738244469.6427999,27103,0,0,,0.0,-0.17,0.29,0.77,0.54,0.92,-2.91,1.38,-8.36,1.17,8.8,0.0,0.0,0.0,-5.63,2.68,7.56
1738244469.6599352,27104,0,0,,0.0,-0.14,0.29,0.78,0.54,0.88,-2.82,1.31,-7.93,1.8,7.84,0.0,0.0,0.0,-5.15,2.94,7.8
1738244469.6773994,27105,0,0,,0.0,-0.11,0.28,0.79,0.53,0.77,-2.5,1.26,-7.91,1.92,7.83,0.0,0.0,0.0,-4.71,3.18,7.98
1738244469.6929162,27106,0,0,,0.0,-0.1,0.28,0.79,0.53,0.73,-2.1,1.28,-8.48,2.32,8.21,0.0,0.0,0.0,-4.51,3.29,8.05
1738244469.7099712,27107,0,0,,0.0,-0.08,0.28,0.8,0.53,0.69,-1.94,1.34,-8.51,1.04,7.1,0.0,0.0,0.0,-4.13,3.51,8.16
1738244469.7276926,27108,0,0,,0.0,-0.06,0.28,0.8,0.52,0.57,-1.5,1.23,-8.47,0.0,6.62,0.0,0.0,0.0,-3.84,3.68,8.23
1738244469.7429676,27109,0,0,,0.0,-0.06,0.28,0.81,0.52,0.49,-0.9,0.71,-9.15,-1.03,5.94,0.0,0.0,0.0,-3.74,3.75,8.25
1738244469.7603636,27110,0,0,,0.0,-0.05,0.28,0.81,0.52,0.51,-0.61,0.45,-9.8,-0.1,5.15,0.0,0.0,0.0,-3.64,3.85,8.24
1738244469.7774024,27111,0,0,,0.0,-0.05,0.28,0.81,0.52,0.33,-0.09,0.11,-9.69,0.12,4.27,0.0,0.0,0.0,-3.65,3.89,8.22
1738244469.7923687,27112,0,0,,0.0,-0.05,0.28,0.81,0.52,0.1,0.68,-0.15,-9.97,-0.27,2.8,0.0,0.0,0.0,-3.71,3.9,8.19
1738244469.8097856,27113,0,0,,0.0,-0.06,0.29,0.8,0.52,0.05,1.07,-0.18,-15.35,5.45,6.65,0.0,0.0,0.0,-3.91,3.88,8.1
1738244469.827084,27114,0,0,,0.0,-0.08,0.28,0.8,0.52,-1.14,1.4,-0.52,-14.46,1.41,7.91,0.0,0.0,0.0,-4.13,3.6,8.12
1738244469.8422756,27115,0,0,,0.0,-0.09,0.28,0.81,0.52,-1.28,0.07,-0.11,-10.9,-2.86,10.26,0.0,0.0,0.0,-4.14,3.5,8.16
1738244469.8596451,27116,0,0,,0.0,-0.08,0.27,0.81,0.51,-0.79,-0.32,0.3,-6.31,3.43,10.84,0.0,0.0,0.0,-4.04,3.39,8.26
1738244469.8769567,27117,0,0,,0.0,-0.08,0.26,0.82,0.51,-0.69,-0.84,0.67,-3.28,2.52,9.69,0.0,0.0,0.0,-3.85,3.35,8.36
1738244469.892581,27118,0,0,,0.0,-0.08,0.26,0.82,0.51,-0.33,-0.87,0.54,1.15,5.1,10.29,0.0,0.0,0.0,-3.76,3.34,8.41
1738244469.9101634,27119,0,0,,0.0,-0.07,0.25,0.82,0.51,-0.23,-0.56,0.19,-0.49,6.47,8.02,0.0,0.0,0.0,-3.71,3.3,8.45
1738244469.9276288,27120,0,0,,0.0,-0.08,0.25,0.82,0.51,-0.64,0.27,-0.33,-4.2,4.26,8.23,0.0,0.0,0.0,-3.77,3.17,8.47
1738244469.9424071,27121,0,0,,0.0,-0.08,0.25,0.82,0.51,-0.36,0.01,-0.16,-5.33,0.94,9.09,0.0,0.0,0.0,-3.78,3.14,8.48
1738244469.9604394,27122,0,0,,0.0,-0.08,0.25,0.82,0.51,-0.15,-0.06,-0.06,-4.33,1.59,8.7,0.0,0.0,0.0,-3.77,3.12,8.49
1738244469.9773598,27123,0,0,,0.0,-0.08,0.25,0.82,0.51,0.15,-0.07,0.08,-2.93,2.07,8.68,0.0,0.0,0.0,-3.76,3.16,8.48
1738244469.9928765,27124,0,0,,0.0,-0.08,0.25,0.82,0.51,0.32,0.08,0.09,-3.43,2.35,8.58,0.0,0.0,0.0,-3.76,3.19,8.47
1738244470.010393,27125,0,0,,0.0,-0.08,0.25,0.82,0.51,0.36,0.11,0.09,-4.26,3.22,8.12,0.0,0.0,0.0,-3.78,3.26,8.43
1738244470.027394,27126,0,0,,0.0,-0.08,0.26,0.82,0.51,0.29,0.2,0.03,-4.24,3.26,8.19,0.0,0.0,0.0,-3.81,3.3,8.4
1738244470.0431201,27127,0,0,,0.0,-0.08,0.26,0.82,0.51,0.17,0.12,-0.01,-3.93,3.64,8.2,0.0,0.0,0.0,-3.82,3.31,8.39
1738244470.0602586,27128,0,0,,0.0,-0.08,0.26,0.82,0.51,0.12,0.1,-0.04,-4.15,3.28,8.65,0.0,0.0,0.0,-3.83,3.33,8.38
1738244470.077619,27129,0,0,,0.0,-0.08,0.26,0.82,0.51,0.1,0.05,-0.05,-3.98,2.74,8.38,0.0,0.0,0.0,-3.84,3.34,8.37
1738244470.0927856,27130,0,0,,0.0,-0.08,0.26,0.82,0.51,0.16,0.02,-0.02,-3.82,2.72,8.47,0.0,0.0,0.0,-3.85,3.36,8.36
1738244470.1103208,27131,0,0,,0.0,-0.08,0.26,0.82,0.51,0.2,0.05,-0.02,-4.51,2.46,8.4,0.0,0.0,0.0,-3.86,3.39,8.35
1738244470.127832,27132,0,0,,0.0,-0.08,0.26,0.81,0.51,0.25,0.05,0.02,-3.89,3.27,8.26,0.0,0.0,0.0,-3.86,3.43,8.33
1738244470.1427858,27133,0,0,,0.0,-0.08,0.26,0.81,0.51,0.2,0.07,0.02,-4.11,3.21,8.23,0.0,0.0,0.0,-3.87,3.45,8.32
1738244470.1600218,27134,0,0,,0.0,-0.08,0.27,0.81,0.51,0.18,0.05,0.02,-4.59,3.58,8.07,0.0,0.0,0.0,-3.88,3.48,8.3
1738244470.177835,27135,0,0,,0.0,-0.08,0.27,0.81,0.51,0.09,0.05,-0.02,-3.89,3.38,8.27,0.0,0.0,0.0,-3.88,3.48,8.29
1738244470.1932333,27136,0,0,,0.0,-0.08,0.27,0.81,0.51,0.0,0.03,-0.07,-4.22,3.38,7.89,0.0,0.0,0.0,-3.89,3.48,8.29
1738244470.2108588,27137,0,0,,0.0,-0.08,0.27,0.81,0.51,-0.04,0.01,-0.07,-4.25,3.77,8.19,0.0,0.0,0.0,-3.89,3.47,8.3
1738244470.2283597,27138,0,0,,0.0,-0.08,0.27,0.81,0.51,-0.1,-0.02,-0.07,-3.95,3.23,8.2,0.0,0.0,0.0,-3.89,3.44,8.31
1738244470.244039,27139,0,0,,0.0,-0.08,0.26,0.81,0.51,-0.09,-0.03,-0.05,-3.74,3.1,8.64,0.0,0.0,0.0,-3.89,3.44,8.31
1738244470.2605076,27140,0,0,,0.0,-0.08,0.26,0.81,0.51,-0.06,-0.02,-0.04,-4.69,2.56,8.4,0.0,0.0,0.0,-3.89,3.43,8.31
1738244470.2776742,27141,0,0,,0.0,-0.08,0.26,0.81,0.51,0.02,-0.02,0.01,-3.59,2.93,8.73,0.0,0.0,0.0,-3.89,3.43,8.31
1738244470.2939875,27142,0,0,,0.0,-0.08,0.26,0.81,0.51,0.05,0.0,0.01,-4.29,2.67,8.39,0.0,0.0,0.0,-3.89,3.43,8.31
1738244470.3111687,27143,0,0,,0.0,-0.08,0.26,0.81,0.51,0.06,-0.01,0.03,-3.86,3.09,8.33,0.0,0.0,0.0,-3.89,3.44,8.31
1738244470.32797,27144,0,0,,0.0,-0.08,0.27,0.81,0.51,0.04,0.0,0.02,-3.99,2.86,8.26,0.0,0.0,0.0,-3.89,3.45,8.31
1738244470.3493414,27145,0,0,,0.0,-0.08,0.27,0.81,0.51,0.01,-0.0,0.01,-3.62,3.13,8.31,0.0,0.0,0.0,-3.89,3.45,8.31
1738244470.3664734,27146,0,0,,0.0,-0.08,0.27,0.81,0.51,0.0,-0.02,0.0,-3.92,3.72,8.38,0.0,0.0,0.0,-3.89,3.45,8.31
1738244470.3811247,27147,0,0,,0.0,-0.08,0.27,0.81,0.51,-0.02,-0.01,-0.01,-4.67,3.19,8.14,0.0,0.0,0.0,-3.88,3.45,8.31
1738244470.3990738,27148,0,0,,0.0,-0.08,0.26,0.81,0.51,-0.01,-0.03,-0.01,-4.19,3.4,8.28,0.0,0.0,0.0,-3.88,3.45,8.31
1738244470.417064,27149,0,0,,0.0,-0.08,0.26,0.81,0.51,-0.01,-0.03,-0.02,-4.26,3.18,8.2,0.0,0.0,0.0,-3.88,3.45,8.31
1738244470.431649,27150,0,0,,0.0,-0.08,0.26,0.81,0.51,0.01,-0.03,-0.01,-3.84,3.21,8.35,0.0,0.0,0.0,-3.87,3.44,8.32
1738244470.4501722,27151,0,0,,0.0,-0.08,0.26,0.81,0.51,0.01,0.01,-0.02,-4.81,2.8,8.12,0.0,0.0,0.0,-3.87,3.45,8.31
1738244470.4672148,27152,0,0,,0.0,-0.08,0.26,0.81,0.51,0.04,0.0,0.01,-4.13,3.04,8.25,0.0,0.0,0.0,-3.87,3.45,8.31
1738244470.481632,27153,0,0,,0.0,-0.08,0.27,0.81,0.51,0.06,0.0,0.02,-3.77,3.48,8.39,0.0,0.0,0.0,-3.88,3.45,8.31
1738244470.5000112,27154,0,0,,0.0,-0.08,0.27,0.81,0.51,0.06,0.0,0.02,-3.87,3.05,8.18,0.0,0.0,0.0,-3.88,3.46,8.31
1738244470.5175798,27155,0,0,,0.0,-0.08,0.27,0.81,0.51,0.04,0.02,0.01,-3.78,3.68,8.32,0.0,0.0,0.0,-3.88,3.47,8.3
1738244470.5321596,27156,0,0,,0.0,-0.08,0.27,0.81,0.51,0.01,0.05,-0.02,-4.53,3.51,8.09,0.0,0.0,0.0,-3.89,3.47,8.3
1738244470.5500448,27157,0,0,,0.0,-0.08,0.27,0.81,0.51,0.0,0.03,-0.02,-4.29,2.94,8.31,0.0,0.0,0.0,-3.89,3.47,8.3
1738244470.5670831,27158,0,0,,0.0,-0.08,0.27,0.81,0.51,0.0,0.04,-0.03,-4.8,3.12,8.22,0.0,0.0,0.0,-3.9,3.47,8.3
1738244470.5819395,27159,0,0,,0.0,-0.08,0.27,0.81,0.51,0.01,0.04,-0.01,-4.1,3.34,8.38,0.0,0.0,0.0,-3.9,3.47,8.29
1738244470.6000264,27160,0,0,,0.0,-0.08,0.27,0.81,0.51,0.02,0.05,-0.01,-4.52,3.23,8.31,0.0,0.0,0.0,-3.91,3.47,8.29
1738244470.618312,27161,0,0,,0.0,-0.08,0.27,0.81,0.51,0.01,0.04,-0.01,-3.99,3.36,8.4,0.0,0.0,0.0,-3.92,3.47,8.29
1738244470.6323225,27162,0,0,,0.0,-0.08,0.27,0.81,0.51,-0.01,0.04,-0.03,-3.38,3.45,8.47,0.0,0.0,0.0,-3.93,3.47,8.28
1738244470.6500854,27163,0,0,,0.0,-0.08,0.27,0.81,0.51,0.0,0.03,-0.03,-4.01,3.21,8.37,0.0,0.0,0.0,-3.93,3.46,8.28
1738244470.6670403,27164,0,0,,0.0,-0.08,0.27,0.81,0.51,-0.01,0.02,-0.04,-3.76,3.45,8.38,0.0,0.0,0.0,-3.94,3.46,8.28
1738244470.6821456,27165,0,0,,0.0,-0.08,0.27,0.81,0.51,-0.02,0.02,-0.04,-3.9,3.55,8.41,0.0,0.0,0.0,-3.94,3.45,8.28
1738244470.6994119,27166,0,0,,0.0,-0.08,0.27,0.81,0.51,-0.02,0.02,-0.05,-4.42,2.77,8.31,0.0,0.0,0.0,-3.95,3.45,8.28
1738244470.7175126,27167,0,0,,0.0,-0.08,0.27,0.81,0.51,-0.01,0.02,-0.04,-4.63,3.24,8.26,0.0,0.0,0.0,-3.96,3.44,8.28
1738244470.7316577,27168,0,0,,0.0,-0.08,0.27,0.81,0.51,0.0,0.01,-0.03,-3.54,3.47,8.55,0.0,0.0,0.0,-3.96,3.44,8.28
1738244470.7499957,27169,0,0,,0.0,-0.08,0.27,0.81,0.51,0.01,0.02,-0.04,-4.84,3.05,8.23,0.0,0.0,0.0,-3.96,3.44,8.28
1738244470.7662337,27170,0,0,,0.0,-0.08,0.27,0.81,0.51,0.01,0.02,-0.03,-4.24,3.26,8.37,0.0,0.0,0.0,-3.97,3.43,8.27
1738244470.7815409,27171,0,0,,0.0,-0.08,0.27,0.81,0.51,0.01,0.02,-0.04,-4.04,3.16,8.21,0.0,0.0,0.0,-3.98,3.43,8.27
1738244470.79933,27172,0,0,,0.0,-0.08,0.27,0.81,0.52,0.01,0.01,-0.03,-4.01,3.22,8.54,0.0,0.0,0.0,-3.98,3.43,8.27
1738244470.8169916,27173,0,0,,0.0,-0.08,0.27,0.81,0.52,0.0,0.03,-0.05,-4.92,2.88,8.16,0.0,0.0,0.0,-3.98,3.43,8.27
1738244470.8321066,27174,0,0,,0.0,-0.08,0.27,0.81,0.52,-0.0,0.03,-0.05,-4.4,3.17,8.0,0.0,0.0,0.0,-3.99,3.42,8.27
1738244470.8498306,27175,0,0,,0.0,-0.08,0.27,0.81,0.52,-0.0,0.05,-0.06,-4.79,2.76,8.31,0.0,0.0,0.0,-4.0,3.42,8.27
1738244470.8653839,27176,0,0,,0.0,-0.08,0.27,0.81,0.52,0.01,0.08,-0.06,-3.94,3.36,8.28,0.0,0.0,0.0,-4.01,3.41,8.26
1738244470.8816068,27177,0,0,,0.0,-0.08,0.27,0.81,0.52,0.01,0.1,-0.07,-3.88,3.36,8.34,0.0,0.0,0.0,-4.04,3.41,8.25
1738244470.8987398,27178,0,0,,0.0,-0.08,0.27,0.81,0.52,0.03,0.14,-0.08,-3.93,3.12,8.53,0.0,0.0,0.0,-4.05,3.4,8.25
1738244470.9147704,27179,0,0,,0.0,-0.09,0.27,0.81,0.52,0.04,0.17,-0.11,-3.14,3.52,8.38,0.0,0.0,0.0,-4.09,3.4,8.23
1738244470.931079,27180,0,0,,0.0,-0.09,0.27,0.81,0.52,0.04,0.22,-0.13,-4.4,3.01,8.23,0.0,0.0,0.0,-4.14,3.4,8.21
1738244470.9487686,27181,0,0,,0.0,-0.09,0.27,0.81,0.52,0.05,0.32,-0.17,-4.01,3.22,8.38,0.0,0.0,0.0,-4.17,3.39,8.19
1738244470.964294,27182,0,0,,0.0,-0.09,0.27,0.8,0.52,0.05,0.47,-0.2,-4.04,3.42,8.73,0.0,0.0,0.0,-4.25,3.39,8.15
1738244470.9810164,27183,0,0,,0.0,-0.1,0.28,0.8,0.52,0.07,0.55,-0.22,-3.36,3.41,8.64,0.0,0.0,0.0,-4.36,3.38,8.1
1738244470.9983559,27184,0,0,,0.0,-0.1,0.28,0.8,0.52,0.08,0.76,-0.29,-4.59,2.9,8.2,0.0,0.0,0.0,-4.43,3.37,8.07
1738244471.0148304,27185,0,0,,0.0,-0.11,0.28,0.8,0.52,0.1,0.96,-0.32,-4.84,3.06,8.05,0.0,0.0,0.0,-4.59,3.36,7.98
1738244471.0313895,27186,0,0,,0.0,-0.12,0.29,0.8,0.52,0.1,1.06,-0.33,-5.05,2.58,8.12,0.0,0.0,0.0,-4.78,3.34,7.87
1738244471.048936,27187,0,0,,0.0,-0.12,0.29,0.79,0.52,0.1,1.26,-0.36,-4.85,2.8,8.19,0.0,0.0,0.0,-4.89,3.33,7.81
1738244471.0639522,27188,0,0,,0.0,-0.13,0.3,0.79,0.52,0.1,1.42,-0.41,-4.91,3.25,7.84,0.0,0.0,0.0,-5.12,3.31,7.67
1738244471.0812788,27189,0,0,,0.0,-0.15,0.31,0.79,0.52,0.11,1.49,-0.41,-4.8,2.9,8.25,0.0,0.0,0.0,-5.37,3.29,7.51
1738244471.0989723,27190,0,0,,0.0,-0.15,0.31,0.78,0.52,0.09,1.62,-0.46,-4.97,3.17,7.76,0.0,0.0,0.0,-5.5,3.27,7.42
1738244471.114485,27191,0,0,,0.0,-0.17,0.32,0.78,0.51,0.09,1.7,-0.51,-6.21,3.04,6.99,0.0,0.0,0.0,-5.77,3.23,7.23
1738244471.1314738,27192,0,0,,0.0,-0.18,0.33,0.77,0.51,0.09,1.73,-0.54,-6.52,2.49,7.4,0.0,0.0,0.0,-6.04,3.18,7.03
1738244471.148769,27193,0,0,,0.0,-0.19,0.33,0.77,0.51,0.1,1.78,-0.57,-6.01,3.13,7.0,0.0,0.0,0.0,-6.18,3.15,6.92
1738244471.1646276,27194,0,0,,0.0,-0.2,0.34,0.76,0.51,0.08,1.85,-0.6,-6.36,2.77,7.09,0.0,0.0,0.0,-6.46,3.09,6.69
1738244471.1817575,27195,0,0,,0.0,-0.22,0.35,0.75,0.51,0.06,1.87,-0.63,-6.53,3.12,6.47,0.0,0.0,0.0,-6.74,3.01,6.44
1738244471.1991234,27196,0,0,,0.0,-0.23,0.35,0.75,0.51,0.06,1.94,-0.68,-6.17,3.07,6.77,0.0,0.0,0.0,-6.88,2.97,6.32
1738244471.2153487,27197,0,0,,0.0,-0.25,0.36,0.74,0.5,0.04,2.12,-0.82,-8.29,2.26,6.91,0.0,0.0,0.0,-7.17,2.87,6.03
1738244471.2322547,27198,0,0,,0.0,-0.27,0.37,0.73,0.5,0.07,2.25,-0.98,-7.89,3.25,6.42,0.0,0.0,0.0,-7.49,2.72,5.69
1738244471.2501004,27199,0,0,,0.0,-0.28,0.38,0.73,0.5,0.02,2.5,-1.36,-8.12,3.52,6.89,0.0,0.0,0.0,-7.67,2.62,5.51
1738244471.2651904,27200,0,0,,0.0,-0.3,0.38,0.71,0.5,0.09,2.67,-1.73,-7.94,4.0,7.07,0.0,0.0,0.0,-8.01,2.38,5.11
1738244471.2820735,27201,0,0,,0.0,-0.33,0.39,0.69,0.51,0.06,2.84,-1.94,-8.61,3.96,6.95,0.0,0.0,0.0,-8.38,2.06,4.64
1738244471.2994494,27202,0,0,,0.0,-0.34,0.4,0.68,0.51,0.08,3.14,-2.34,-9.22,3.68,7.3,0.0,0.0,0.0,-8.56,1.88,4.39
1738244471.315847,27203,0,0,,0.0,-0.38,0.4,0.66,0.51,-0.07,3.46,-2.69,-9.86,4.34,7.95,0.0,0.0,0.0,-8.91,1.43,3.81
1738244471.3328137,27204,0,0,,0.0,-0.41,0.41,0.63,0.51,-0.25,3.56,-2.8,-8.35,4.46,7.0,0.0,0.0,0.0,-9.22,0.9,3.19
1738244471.350148,27205,0,0,,0.0,-0.43,0.41,0.62,0.51,-0.83,3.74,-3.01,-7.84,4.04,6.49,0.0,0.0,0.0,-9.35,0.61,2.86
1738244471.3657994,27206,0,0,,0.0,-0.47,0.41,0.59,0.51,-1.19,3.94,-3.14,-6.96,-0.41,4.92,0.0,0.0,0.0,-9.56,-0.01,2.15
1738244471.3819153,27207,0,0,,0.0,-0.51,0.41,0.56,0.51,-1.24,4.05,-3.15,-6.66,-1.49,3.99,0.0,0.0,0.0,-9.68,-0.63,1.38
1738244471.400089,27208,0,0,,0.0,-0.53,0.41,0.54,0.5,-1.11,4.24,-2.96,-7.69,-0.17,1.91,0.0,0.0,0.0,-9.71,-0.92,0.97
1738244471.4163578,27209,0,0,,0.0,-0.57,0.41,0.51,0.5,-0.45,3.98,-1.95,-10.54,-0.61,3.58,0.0,0.0,0.0,-9.71,-1.35,0.18
1738244471.4326756,27210,0,0,,0.0,-0.59,0.42,0.49,0.49,-0.12,3.51,-1.47,-11.91,0.16,4.37,0.0,0.0,0.0,-9.66,-1.59,-0.4
1738244471.4501042,27211,0,0,,0.0,-0.59,0.42,0.48,0.49,0.16,1.99,-0.67,-12.3,1.95,6.61,0.0,0.0,0.0,-9.64,-1.65,-0.59
1738244471.4662592,27212,0,0,,0.0,-0.6,0.42,0.48,0.49,-0.37,-0.01,-0.18,-11.8,2.73,7.26,0.0,0.0,0.0,-9.63,-1.71,-0.69
1738244471.4828193,27213,0,0,,0.0,-0.59,0.42,0.49,0.49,-0.55,-0.91,0.09,-9.33,0.7,4.04,0.0,0.0,0.0,-9.65,-1.66,-0.47
1738244471.500149,27214,0,0,,0.0,-0.59,0.41,0.5,0.49,-0.21,-2.08,0.52,-7.92,-0.79,2.52,0.0,0.0,0.0,-9.66,-1.61,-0.28
1738244471.5174263,27215,0,0,,0.0,-0.57,0.41,0.51,0.5,0.3,-2.84,1.11,-8.32,1.66,2.32,0.0,0.0,0.0,-9.69,-1.44,0.21
1738244471.5334303,27216,0,0,,0.0,-0.55,0.4,0.54,0.5,0.21,-3.23,1.38,-7.22,-0.29,1.49,0.0,0.0,0.0,-9.7,-1.15,0.85
1738244471.550679,27217,0,0,,0.0,-0.53,0.4,0.55,0.51,0.24,-3.64,1.75,-7.44,-1.08,1.51,0.0,0.0,0.0,-9.68,-0.98,1.19
1738244471.5672548,27218,0,0,,0.0,-0.5,0.39,0.58,0.51,0.3,-3.85,1.46,-7.51,-1.19,2.44,0.0,0.0,0.0,-9.59,-0.68,1.91
1738244471.5832388,27219,0,0,,0.0,-0.47,0.37,0.6,0.52,0.27,-4.0,1.21,-8.09,-0.45,3.39,0.0,0.0,0.0,-9.42,-0.46,2.67
1738244471.600248,27220,0,0,,0.0,-0.46,0.36,0.61,0.53,0.28,-4.42,0.95,-7.46,-0.04,3.05,0.0,0.0,0.0,-9.3,-0.37,3.07
1738244471.6172526,27221,0,0,,0.0,-0.43,0.35,0.64,0.54,0.42,-4.4,0.87,-6.46,0.67,2.6,0.0,0.0,0.0,-9.01,-0.19,3.86
1738244471.634072,27222,0,0,,0.0,-0.39,0.33,0.66,0.55,0.51,-4.23,0.91,-7.7,1.94,3.65,0.0,0.0,0.0,-8.67,0.02,4.57
1738244471.6510942,27223,0,0,,0.0,-0.38,0.33,0.67,0.55,0.67,-4.03,1.2,-7.57,2.3,3.39,0.0,0.0,0.0,-8.48,0.15,4.91
1738244471.6667001,27224,0,0,,0.0,-0.35,0.31,0.68,0.56,0.57,-3.71,1.44,-7.24,2.26,3.33,0.0,0.0,0.0,-8.09,0.43,5.52
1738244471.6837184,27225,0,0,,0.0,-0.31,0.31,0.7,0.56,0.63,-3.51,1.66,-8.02,3.1,4.46,0.0,0.0,0.0,-7.68,0.77,6.03
1738244471.7010815,27226,0,0,,0.0,-0.3,0.3,0.71,0.56,0.63,-3.2,2.16,-7.82,2.31,4.58,0.0,0.0,0.0,-7.47,0.97,6.26
1738244471.716996,27227,0,0,,0.0,-0.27,0.3,0.73,0.55,0.74,-2.92,2.34,-8.65,1.25,6.38,0.0,0.0,0.0,-7.05,1.38,6.67
1738244471.733672,27228,0,0,,0.0,-0.24,0.29,0.75,0.55,0.78,-2.87,2.33,-8.61,0.37,7.39,0.0,0.0,0.0,-6.6,1.79,7.02
1738244471.751257,27229,0,0,,0.0,-0.22,0.29,0.76,0.54,0.9,-2.84,2.15,-8.56,0.0,8.42,0.0,0.0,0.0,-6.36,1.99,7.18
1738244471.7668138,27230,0,0,,0.0,-0.19,0.29,0.77,0.54,1.01,-2.88,1.87,-8.75,0.06,9.41,0.0,0.0,0.0,-5.87,2.36,7.48
1738244471.7837472,27231,0,0,,0.0,-0.16,0.28,0.78,0.54,1.04,-2.93,1.76,-8.59,0.45,9.35,0.0,0.0,0.0,-5.36,2.7,7.75
1738244471.8006325,27232,0,0,,0.0,-0.14,0.28,0.78,0.53,0.98,-2.95,1.51,-8.48,0.9,9.12,0.0,0.0,0.0,-5.09,2.85,7.87
1738244471.8175936,27233,0,0,,0.0,-0.11,0.27,0.79,0.53,0.88,-2.74,1.28,-8.6,1.55,8.36,0.0,0.0,0.0,-4.58,3.11,8.08
1738244471.8340056,27234,0,0,,0.0,-0.08,0.27,0.8,0.53,0.88,-2.55,1.22,-9.56,2.17,8.03,0.0,0.0,0.0,-4.12,3.36,8.23
1738244471.850999,27235,0,0,,0.0,-0.07,0.27,0.8,0.53,0.98,-2.18,1.21,-9.6,1.83,7.72,0.0,0.0,0.0,-3.9,3.49,8.28
1738244471.8669715,27236,0,0,,0.0,-0.05,0.27,0.81,0.53,0.88,-1.68,0.94,-8.88,0.35,6.01,0.0,0.0,0.0,-3.54,3.71,8.35
1738244471.8836424,27237,0,0,,0.0,-0.03,0.27,0.81,0.53,0.83,-1.36,0.73,-8.48,0.51,5.33,0.0,0.0,0.0,-3.3,3.87,8.37
1738244471.9009042,27238,0,0,,0.0,-0.03,0.27,0.81,0.52,0.59,-0.5,0.29,-7.48,0.29,3.58,0.0,0.0,0.0,-3.25,3.93,8.37
1738244471.9166813,27239,0,0,,0.0,-0.03,0.27,0.81,0.52,0.39,0.61,-0.07,-8.16,0.61,2.85,0.0,0.0,0.0,-3.3,4.0,8.31
1738244471.934194,27240,0,0,,0.0,-0.04,0.28,0.8,0.52,0.3,1.09,-0.18,-8.98,0.97,3.08,0.0,0.0,0.0,-3.52,4.03,8.21
1738244471.9511645,27241,0,0,,0.0,-0.05,0.29,0.8,0.52,0.06,1.73,-0.19,-10.41,0.73,4.12,0.0,0.0,0.0,-3.67,4.03,8.15
1738244471.9666452,27242,0,0,,0.0,-0.06,0.3,0.8,0.52,-0.19,2.03,-0.08,-11.22,0.47,5.63,0.0,0.0,0.0,-3.98,4.0,8.01
1738244471.9833524,27243,0,0,,0.0,-0.08,0.29,0.8,0.51,-1.2,1.86,-0.46,-13.82,-0.92,14.3,0.0,0.0,0.0,-4.22,3.68,8.04
1738244472.0012028,27244,0,0,,0.0,-0.08,0.28,0.81,0.51,-1.03,-0.33,0.19,-9.09,-3.92,10.08,0.0,0.0,0.0,-4.19,3.61,8.09
1738244472.0173755,27245,0,0,,0.0,-0.08,0.28,0.81,0.51,-0.41,-0.82,0.5,-5.92,6.11,8.93,0.0,0.0,0.0,-4.02,3.6,8.18
1738244472.03387,27246,0,0,,0.0,-0.07,0.26,0.82,0.51,-0.97,-0.97,0.52,-5.12,5.34,11.3,0.0,0.0,0.0,-3.79,3.51,8.32
1738244472.050706,27247,0,0,,0.0,-0.07,0.26,0.82,0.51,-0.35,-1.09,0.27,6.71,5.78,10.41,0.0,0.0,0.0,-3.7,3.5,8.37
1738244472.0658205,27248,0,0,,0.0,-0.07,0.26,0.82,0.51,-0.96,0.58,-0.66,-7.59,4.41,8.81,0.0,0.0,0.0,-3.75,3.34,8.42
1738244472.083082,27249,0,0,,0.0,-0.08,0.25,0.82,0.51,-1.09,0.6,-0.56,-10.31,-1.2,9.38,0.0,0.0,0.0,-3.83,3.16,8.45
1738244472.1007228,27250,0,0,,0.0,-0.08,0.25,0.82,0.52,-0.35,-0.07,-0.19,-4.19,2.25,8.82,0.0,0.0,0.0,-3.83,3.12,8.46
1738244472.1159036,27251,0,0,,0.0,-0.08,0.25,0.82,0.52,0.03,0.03,0.02,-3.87,0.61,9.32,0.0,0.0,0.0,-3.84,3.11,8.46
1738244472.133189,27252,0,0,,0.0,-0.08,0.25,0.82,0.51,0.25,0.07,0.08,-3.68,0.98,8.73,0.0,0.0,0.0,-3.85,3.17,8.44
1738244472.150791,27253,0,0,,0.0,-0.08,0.25,0.82,0.51,0.33,0.16,0.09,-3.68,3.41,8.61,0.0,0.0,0.0,-3.86,3.2,8.42
1738244472.1649144,27254,0,0,,0.0,-0.08,0.26,0.81,0.51,0.27,0.16,0.02,-4.37,3.82,8.13,0.0,0.0,0.0,-3.88,3.25,8.39
1738244472.183246,27255,0,0,,0.0,-0.08,0.26,0.81,0.51,0.23,0.11,0.02,-4.18,3.68,8.42,0.0,0.0,0.0,-3.89,3.27,8.38
1738244472.200023,27256,0,0,,0.0,-0.08,0.26,0.81,0.51,0.18,0.06,0.01,-4.52,2.73,8.17,0.0,0.0,0.0,-3.9,3.3,8.36
1738244472.2155738,27257,0,0,,0.0,-0.08,0.26,0.81,0.51,0.29,0.02,0.07,-4.72,2.61,8.26,0.0,0.0,0.0,-3.9,3.34,8.34
1738244472.2330656,27258,0,0,,0.0,-0.08,0.26,0.81,0.51,0.34,0.02,0.09,-4.19,2.29,8.4,0.0,0.0,0.0,-3.9,3.37,8.33
1738244472.2506387,27259,0,0,,0.0,-0.08,0.27,0.81,0.51,0.43,0.03,0.12,-3.61,3.17,8.32,0.0,0.0,0.0,-3.89,3.45,8.3
1738244472.265558,27260,0,0,,0.0,-0.08,0.27,0.81,0.51,0.4,0.06,0.1,-3.82,3.56,8.48,0.0,0.0,0.0,-3.9,3.52,8.27
1738244472.2831376,27261,0,0,,0.0,-0.07,0.27,0.81,0.51,0.37,0.06,0.08,-3.5,3.51,8.14,0.0,0.0,0.0,-3.9,3.56,8.26
1738244472.3009114,27262,0,0,,0.0,-0.07,0.27,0.81,0.51,0.29,0.05,0.05,-3.65,3.77,8.41,0.0,0.0,0.0,-3.91,3.61,8.23
1738244472.3157933,27263,0,0,,0.0,-0.07,0.28,0.81,0.51,0.24,0.07,0.01,-4.75,3.37,8.17,0.0,0.0,0.0,-3.91,3.65,8.21
1738244472.333283,27264,0,0,,0.0,-0.07,0.28,0.81,0.51,0.23,0.03,0.02,-3.95,3.73,8.22,0.0,0.0,0.0,-3.92,3.67,8.2
1738244472.3505573,27265,0,0,,0.0,-0.07,0.28,0.81,0.51,0.2,0.04,-0.01,-4.29,3.71,8.07,0.0,0.0,0.0,-3.92,3.7,8.18
1738244472.3660753,27266,0,0,,0.0,-0.07,0.28,0.81,0.51,0.13,0.02,-0.02,-4.15,3.85,7.91,0.0,0.0,0.0,-3.93,3.73,8.17
1738244472.3832335,27267,0,0,,0.0,-0.07,0.28,0.81,0.51,0.09,0.03,-0.04,-4.59,3.65,7.93,0.0,0.0,0.0,-3.93,3.73,8.16
1738244472.4011202,27268,0,0,,0.0,-0.07,0.28,0.81,0.51,0.01,-0.0,-0.05,-4.19,3.72,7.9,0.0,0.0,0.0,-3.93,3.73,8.16
1738244472.4164488,27269,0,0,,0.0,-0.07,0.28,0.81,0.51,-0.02,-0.02,-0.03,-4.33,3.89,8.28,0.0,0.0,0.0,-3.94,3.72,8.16
1738244472.4337485,27270,0,0,,0.0,-0.07,0.28,0.81,0.51,-0.03,-0.03,-0.02,-3.99,3.25,8.15,0.0,0.0,0.0,-3.94,3.72,8.16
1738244472.4524066,27271,0,0,,0.0,-0.07,0.28,0.81,0.51,0.0,-0.02,0.01,-3.96,3.65,8.63,0.0,0.0,0.0,-3.94,3.72,8.17
1738244472.46904,27272,0,0,,0.0,-0.07,0.28,0.81,0.51,0.05,0.0,0.03,-4.87,3.51,8.14,0.0,0.0,0.0,-3.93,3.73,8.16
1738244472.4849415,27273,0,0,,0.0,-0.07,0.28,0.81,0.51,0.06,-0.01,0.04,-3.69,3.08,8.38,0.0,0.0,0.0,-3.93,3.74,8.16
1738244472.5017636,27274,0,0,,0.0,-0.07,0.28,0.81,0.51,0.06,0.02,0.03,-4.63,3.49,8.14,0.0,0.0,0.0,-3.93,3.75,8.16
1738244472.5164213,27275,0,0,,0.0,-0.07,0.28,0.81,0.51,0.05,-0.0,0.03,-3.92,3.4,8.27,0.0,0.0,0.0,-3.93,3.76,8.15
1738244472.5340476,27276,0,0,,0.0,-0.07,0.28,0.81,0.51,0.05,0.0,0.02,-4.29,3.51,8.08,0.0,0.0,0.0,-3.93,3.76,8.15
1738244472.551593,27277,0,0,,0.0,-0.07,0.28,0.81,0.51,0.06,-0.02,0.03,-3.63,3.58,8.2,0.0,0.0,0.0,-3.93,3.77,8.15
1738244472.566013,27278,0,0,,0.0,-0.07,0.28,0.81,0.51,0.06,-0.03,0.02,-3.54,3.69,8.49,0.0,0.0,0.0,-3.92,3.78,8.15
1738244472.5838819,27279,0,0,,0.0,-0.07,0.28,0.81,0.51,0.08,-0.04,0.03,-3.84,3.62,7.96,0.0,0.0,0.0,-3.92,3.79,8.14
1738244472.6016777,27280,0,0,,0.0,-0.07,0.28,0.81,0.51,0.07,-0.03,0.03,-4.01,3.8,8.27,0.0,0.0,0.0,-3.91,3.8,8.14
1738244472.6165473,27281,0,0,,0.0,-0.07,0.28,0.81,0.51,0.1,-0.03,0.04,-4.43,3.72,8.19,0.0,0.0,0.0,-3.91,3.82,8.13
1738244472.6339498,27282,0,0,,0.0,-0.07,0.28,0.81,0.51,0.11,-0.03,0.05,-3.9,3.13,8.11,0.0,0.0,0.0,-3.9,3.83,8.13
1738244472.6516967,27283,0,0,,0.0,-0.07,0.28,0.81,0.51,0.1,-0.03,0.05,-4.7,3.81,7.95,0.0,0.0,0.0,-3.89,3.85,8.13
1738244472.6663983,27284,0,0,,0.0,-0.07,0.28,0.81,0.51,0.03,-0.03,0.04,-3.65,4.08,8.18,0.0,0.0,0.0,-3.88,3.86,8.13
1738244472.6843567,27285,0,0,,0.0,-0.07,0.28,0.81,0.51,-0.02,-0.01,0.01,-4.61,3.78,7.96,0.0,0.0,0.0,-3.88,3.86,8.13
1738244472.7015622,27286,0,0,,0.0,-0.07,0.28,0.81,0.51,-0.08,-0.02,0.0,-4.15,3.9,8.04,0.0,0.0,0.0,-3.88,3.85,8.13
1738244472.7166164,27287,0,0,,0.0,-0.07,0.28,0.81,0.51,-0.11,-0.02,-0.01,-3.79,3.85,8.13,0.0,0.0,0.0,-3.88,3.83,8.14
1738244472.734391,27288,0,0,,0.0,-0.07,0.28,0.81,0.51,-0.16,-0.02,-0.02,-3.62,3.97,8.06,0.0,0.0,0.0,-3.88,3.81,8.15
1738244472.75178,27289,0,0,,0.0,-0.07,0.28,0.81,0.51,-0.26,0.03,-0.07,-4.72,3.59,7.8,0.0,0.0,0.0,-3.89,3.77,8.17
1738244472.7663376,27290,0,0,,0.0,-0.07,0.28,0.81,0.51,-0.28,0.01,-0.07,-4.5,3.66,7.99,0.0,0.0,0.0,-3.9,3.72,8.18
1738244472.7844257,27291,0,0,,0.0,-0.07,0.28,0.81,0.51,-0.34,0.02,-0.1,-4.54,3.14,8.13,0.0,0.0,0.0,-3.9,3.69,8.2
1738244472.8016663,27292,0,0,,0.0,-0.07,0.27,0.81,0.51,-0.33,-0.04,-0.1,-3.95,3.55,8.41,0.0,0.0,0.0,-3.9,3.63,8.22
1738244472.8171124,27293,0,0,,0.0,-0.07,0.27,0.81,0.51,-0.32,-0.07,-0.11,-3.81,3.68,8.43,0.0,0.0,0.0,-3.9,3.57,8.25
1738244472.8342402,27294,0,0,,0.0,-0.07,0.27,0.81,0.51,-0.31,-0.13,-0.11,-4.44,3.5,8.16,0.0,0.0,0.0,-3.89,3.54,8.27
1738244472.8524067,27295,0,0,,0.0,-0.07,0.27,0.81,0.51,-0.32,-0.17,-0.12,-3.12,3.85,8.53,0.0,0.0,0.0,-3.88,3.48,8.3
1738244472.8666925,27296,0,0,,0.0,-0.08,0.26,0.81,0.52,-0.34,-0.14,-0.15,-4.03,2.8,8.36,0.0,0.0,0.0,-3.86,3.42,8.33
1738244472.8849044,27297,0,0,,0.0,-0.08,0.26,0.81,0.52,-0.3,-0.15,-0.15,-3.95,3.05,8.54,0.0,0.0,0.0,-3.86,3.39,8.35
1738244472.9017944,27298,0,0,,0.0,-0.08,0.26,0.81,0.52,-0.23,-0.11,-0.14,-4.3,2.84,8.52,0.0,0.0,0.0,-3.85,3.33,8.37
1738244472.9171188,27299,0,0,,0.0,-0.08,0.26,0.81,0.52,-0.19,-0.1,-0.11,-3.57,2.92,8.48,0.0,0.0,0.0,-3.84,3.3,8.39
1738244472.9345584,27300,0,0,,0.0,-0.08,0.26,0.81,0.52,-0.14,-0.04,-0.1,-4.76,2.42,8.42,0.0,0.0,0.0,-3.84,3.28,8.4
1738244472.952067,27301,0,0,,0.0,-0.08,0.26,0.81,0.52,-0.09,-0.02,-0.07,-3.99,2.92,8.35,0.0,0.0,0.0,-3.84,3.26,8.41
1738244472.967015,27302,0,0,,0.0,-0.08,0.25,0.81,0.52,-0.07,-0.0,-0.07,-3.61,3.06,8.5,0.0,0.0,0.0,-3.84,3.25,8.41
1738244472.9852533,27303,0,0,,0.0,-0.08,0.25,0.81,0.52,-0.04,0.01,-0.05,-4.3,2.67,8.44,0.0,0.0,0.0,-3.84,3.24,8.41
1738244473.0024107,27304,0,0,,0.0,-0.08,0.25,0.81,0.52,-0.03,-0.0,-0.05,-3.7,3.29,8.49,0.0,0.0,0.0,-3.84,3.23,8.41
1738244473.0175571,27305,0,0,,0.0,-0.08,0.25,0.81,0.52,-0.01,-0.02,-0.04,-4.33,3.2,8.37,0.0,0.0,0.0,-3.84,3.23,8.42
1738244473.0347733,27306,0,0,,0.0,-0.08,0.25,0.81,0.52,-0.01,-0.04,-0.04,-3.36,3.46,8.58,0.0,0.0,0.0,-3.84,3.23,8.42
1738244473.0528681,27307,0,0,,0.0,-0.08,0.25,0.81,0.52,-0.0,-0.03,-0.05,-4.58,2.89,8.37,0.0,0.0,0.0,-3.84,3.22,8.42
1738244473.06753,27308,0,0,,0.0,-0.08,0.25,0.81,0.52,-0.0,-0.03,-0.05,-3.41,2.74,8.18,0.0,0.0,0.0,-3.84,3.22,8.42
1738244473.0854044,27309,0,0,,0.0,-0.08,0.25,0.81,0.52,0.02,-0.01,-0.05,-3.67,2.93,7.99,0.0,0.0,0.0,-3.84,3.22,8.42
1738244473.1022704,27310,0,0,,0.0,-0.08,0.25,0.81,0.52,0.02,0.07,-0.04,-4.31,4.15,9.42,0.0,0.0,0.0,-3.85,3.22,8.42
1738244473.1175394,27311,0,0,,0.0,-0.08,0.25,0.81,0.52,-0.0,0.05,-0.04,-2.91,3.19,7.84,0.0,0.0,0.0,-3.86,3.22,8.41
1738244473.1352274,27312,0,0,,0.0,-0.08,0.26,0.81,0.52,0.02,0.14,-0.11,-4.11,3.04,8.93,0.0,0.0,0.0,-3.88,3.21,8.41
1738244473.1520987,27313,0,0,,0.0,-0.08,0.26,0.81,0.52,0.03,0.24,-0.17,-3.3,3.28,8.33,0.0,0.0,0.0,-3.92,3.2,8.39
1738244473.1681004,27314,0,0,,0.0,-0.09,0.26,0.81,0.53,0.04,0.33,-0.21,-3.8,3.51,8.67,0.0,0.0,0.0,-4.0,3.19,8.36
1738244473.1854866,27315,0,0,,0.0,-0.09,0.26,0.8,0.53,0.04,0.47,-0.27,-3.48,3.14,8.53,0.0,0.0,0.0,-4.04,3.19,8.34
1738244473.2021434,27316,0,0,,0.0,-0.09,0.26,0.8,0.53,0.07,0.68,-0.29,-3.59,2.96,8.47,0.0,0.0,0.0,-4.16,3.17,8.28
1738244473.2174258,27317,0,0,,0.0,-0.1,0.27,0.8,0.53,0.09,0.82,-0.31,-3.92,2.56,8.42,0.0,0.0,0.0,-4.32,3.17,8.21
1738244473.2353625,27318,0,0,,0.0,-0.11,0.27,0.8,0.53,0.14,1.02,-0.3,-4.81,2.84,8.24,0.0,0.0,0.0,-4.41,3.16,8.16
1738244473.252499,27319,0,0,,0.0,-0.11,0.28,0.8,0.53,0.16,1.15,-0.31,-4.17,3.14,8.44,0.0,0.0,0.0,-4.61,3.16,8.05
1738244473.2673209,27320,0,0,,0.0,-0.12,0.28,0.79,0.53,0.15,1.19,-0.33,-4.99,2.83,8.02,0.0,0.0,0.0,-4.81,3.15,7.93
1738244473.285667,27321,0,0,,0.0,-0.13,0.29,0.79,0.53,0.09,1.22,-0.37,-5.05,3.61,8.21,0.0,0.0,0.0,-4.92,3.14,7.87
1738244473.3025508,27322,0,0,,0.0,-0.14,0.29,0.79,0.52,-0.02,1.28,-0.46,-5.22,2.98,7.92,0.0,0.0,0.0,-5.13,3.1,7.75
1738244473.317752,27323,0,0,,0.0,-0.15,0.3,0.78,0.52,-0.02,1.25,-0.47,-5.57,2.88,7.26,0.0,0.0,0.0,-5.35,3.05,7.62
1738244473.336076,27324,0,0,,0.0,-0.16,0.3,0.78,0.53,-0.1,1.34,-0.56,-6.25,2.63,7.75,0.0,0.0,0.0,-5.47,3.01,7.55
1738244473.352729,27325,0,0,,0.0,-0.17,0.31,0.78,0.53,-0.1,1.38,-0.57,-5.55,2.74,7.46,0.0,0.0,0.0,-5.7,2.93,7.41
1738244473.368071,27326,0,0,,0.0,-0.18,0.31,0.77,0.53,-0.1,1.42,-0.58,-5.84,2.38,7.82,0.0,0.0,0.0,-5.93,2.85,7.26
1738244473.3858953,27327,0,0,,0.0,-0.19,0.32,0.77,0.52,-0.08,1.49,-0.59,-5.69,2.76,7.39,0.0,0.0,0.0,-6.05,2.81,7.17
1738244473.4028785,27328,0,0,,0.0,-0.2,0.32,0.76,0.52,-0.04,1.62,-0.67,-6.43,2.85,7.7,0.0,0.0,0.0,-6.31,2.73,6.98
1738244473.4183605,27329,0,0,,0.0,-0.22,0.33,0.76,0.52,-0.06,1.68,-0.73,-7.5,2.84,7.74,0.0,0.0,0.0,-6.58,2.62,6.77
1738244473.4365277,27330,0,0,,0.0,-0.24,0.33,0.75,0.53,-0.24,1.89,-0.94,-7.17,3.62,7.85,0.0,0.0,0.0,-6.73,2.54,6.66
1738244473.4536479,27331,0,0,,0.0,-0.24,0.34,0.74,0.53,-0.33,2.0,-1.07,-7.13,2.54,7.94,0.0,0.0,0.0,-7.02,2.36,6.41
1738244473.468725,27332,0,0,,0.0,-0.27,0.34,0.73,0.53,-0.35,2.12,-1.14,-7.16,2.77,7.91,0.0,0.0,0.0,-7.34,2.16,6.12
1738244473.4868398,27333,0,0,,0.0,-0.29,0.35,0.72,0.53,-0.35,2.39,-1.3,-7.02,2.6,7.31,0.0,0.0,0.0,-7.51,2.04,5.96
1738244473.5033743,27334,0,0,,0.0,-0.3,0.35,0.71,0.53,-0.32,2.71,-1.44,-7.27,1.85,7.37,0.0,0.0,0.0,-7.86,1.8,5.58
1738244473.5182734,27335,0,0,,0.0,-0.33,0.36,0.7,0.52,-0.32,2.9,-1.51,-8.11,2.3,7.79,0.0,0.0,0.0,-8.22,1.52,5.12
1738244473.5375848,27336,0,0,,0.0,-0.36,0.37,0.68,0.52,-0.3,3.25,-1.59,-7.14,2.06,6.41,0.0,0.0,0.0,-8.4,1.38,4.86
1738244473.5535812,27337,0,0,,0.0,-0.38,0.38,0.67,0.52,-0.37,3.71,-1.73,-7.14,1.94,5.88,0.0,0.0,0.0,-8.75,1.07,4.27
1738244473.5688846,27338,0,0,,0.0,-0.41,0.39,0.65,0.52,-0.45,3.98,-1.8,-8.15,0.28,5.25,0.0,0.0,0.0,-9.1,0.71,3.57
1738244473.587988,27339,0,0,,0.0,-0.45,0.39,0.62,0.51,-0.9,4.53,-2.06,-8.11,0.06,4.77,0.0,0.0,0.0,-9.26,0.49,3.17
1738244473.6035287,27340,0,0,,0.0,-0.47,0.4,0.6,0.5,-1.15,5.11,-2.21,-8.95,0.12,4.57,0.0,0.0,0.0,-9.53,0.04,2.27
1738244473.618721,27341,0,0,,0.0,-0.52,0.4,0.57,0.49,-1.32,5.32,-2.26,-8.5,0.87,4.41,0.0,0.0,0.0,-9.71,-0.43,1.26
1738244473.6378582,27342,0,0,,0.0,-0.57,0.41,0.54,0.47,-1.68,5.6,-2.21,-7.98,0.75,4.52,0.0,0.0,0.0,-9.75,-0.65,0.72
1738244473.6546712,27343,0,0,,0.0,-0.59,0.42,0.52,0.46,-1.23,5.88,-1.9,-11.9,-1.02,3.54,0.0,0.0,0.0,-9.74,-1.02,-0.39
1738244473.6691427,27344,0,0,,0.0,-0.62,0.42,0.49,0.44,-0.85,5.48,-1.75,-14.53,2.67,7.59,0.0,0.0,0.0,-9.62,-1.31,-1.35
1738244473.688658,27345,0,0,,0.0,-0.64,0.43,0.47,0.43,-0.41,3.26,-1.04,-13.46,2.86,6.56,0.0,0.0,0.0,-9.56,-1.4,-1.66
1738244473.7049036,27346,0,0,,0.0,-0.64,0.43,0.47,0.43,-0.17,0.73,-0.3,-13.12,2.2,6.5,0.0,0.0,0.0,-9.5,-1.48,-1.92
1738244473.7198794,27347,0,0,,0.0,-0.64,0.43,0.48,0.43,-0.09,-1.83,0.6,-12.45,4.61,5.42,0.0,0.0,0.0,-9.55,-1.42,-1.7
1738244473.739503,27348,0,0,,0.0,-0.62,0.41,0.5,0.44,-0.45,-3.0,0.98,-11.98,2.46,4.96,0.0,0.0,0.0,-9.61,-1.32,-1.43
1738244473.755395,27349,0,0,,0.0,-0.6,0.41,0.52,0.44,-0.48,-4.91,1.09,-10.8,-2.93,2.21,0.0,0.0,0.0,-9.72,-1.1,-0.6
1738244473.7695596,27350,0,0,,0.0,-0.57,0.39,0.56,0.46,0.93,-5.68,0.91,-7.18,-0.96,-1.31,0.0,0.0,0.0,-9.75,-0.92,0.45
1738244473.7895925,27351,0,0,,0.0,-0.53,0.38,0.58,0.49,1.32,-5.59,0.78,-6.64,0.81,-0.85,0.0,0.0,0.0,-9.71,-0.83,0.99
1738244473.8049095,27352,0,0,,0.0,-0.51,0.37,0.6,0.5,0.93,-5.28,0.82,-6.73,2.43,1.23,0.0,0.0,0.0,-9.57,-0.65,2.01
1738244473.8205974,27353,0,0,,0.0,-0.48,0.35,0.62,0.51,0.55,-4.99,0.95,-6.35,1.2,1.02,0.0,0.0,0.0,-9.34,-0.46,2.95
1738244473.8400345,27354,0,0,,0.0,-0.44,0.34,0.65,0.52,0.66,-4.73,1.08,-5.82,1.42,1.31,0.0,0.0,0.0,-9.19,-0.34,3.37
1738244473.8553407,27355,0,0,,0.0,-0.42,0.33,0.66,0.53,0.79,-4.15,1.33,-6.42,1.2,2.49,0.0,0.0,0.0,-8.89,-0.06,4.13
1738244473.8695674,27356,0,0,,0.0,-0.39,0.32,0.68,0.53,1.04,-3.8,1.43,-7.71,0.55,4.22,0.0,0.0,0.0,-8.55,0.25,4.78
1738244473.8901396,27357,0,0,,0.0,-0.35,0.32,0.69,0.54,1.14,-3.78,1.4,-8.23,1.05,4.56,0.0,0.0,0.0,-8.37,0.42,5.09
1738244473.9049356,27358,0,0,,0.0,-0.34,0.31,0.7,0.54,1.09,-3.69,1.31,-8.46,1.05,4.54,0.0,0.0,0.0,-7.96,0.75,5.66
1738244473.9201803,27359,0,0,,0.0,-0.3,0.31,0.72,0.55,1.08,-3.42,1.45,-8.89,2.18,5.13,0.0,0.0,0.0,-7.54,1.08,6.17
1738244473.940102,27360,0,0,,0.0,-0.27,0.3,0.73,0.55,1.08,-3.29,1.62,-8.78,2.47,5.19,0.0,0.0,0.0,-7.32,1.26,6.39
1738244473.9555974,27361,0,0,,0.0,-0.25,0.3,0.74,0.55,0.99,-2.96,1.96,-8.5,1.07,6.06,0.0,0.0,0.0,-6.87,1.65,6.79
1738244473.9699361,27362,0,0,,0.0,-0.22,0.3,0.75,0.54,1.02,-2.67,2.11,-8.88,0.67,7.3,0.0,0.0,0.0,-6.43,2.06,7.1
1738244473.990315,27363,0,0,,0.0,-0.19,0.3,0.77,0.54,0.96,-2.62,2.08,-8.93,0.29,7.63,0.0,0.0,0.0,-6.21,2.25,7.24
1738244474.0055985,27364,0,0,,0.0,-0.18,0.29,0.77,0.53,0.83,-2.54,1.95,-8.89,0.28,7.77,0.0,0.0,0.0,-5.75,2.6,7.5
1738244474.020963,27365,0,0,,0.0,-0.15,0.29,0.78,0.53,0.7,-2.41,1.84,-8.72,0.06,7.72,0.0,0.0,0.0,-5.29,2.91,7.72
1738244474.0410836,27366,0,0,,0.0,-0.12,0.29,0.79,0.52,0.65,-2.3,1.75,-9.14,0.45,8.26,0.0,0.0,0.0,-5.06,3.05,7.82
1738244474.0577388,27367,0,0,,0.0,-0.11,0.28,0.8,0.52,0.58,-2.15,1.61,-9.56,1.16,8.32,0.0,0.0,0.0,-4.63,3.29,7.98
1738244474.0741374,27368,0,0,,0.0,-0.09,0.28,0.81,0.51,0.5,-2.01,1.54,-9.46,1.33,7.17,0.0,0.0,0.0,-4.2,3.51,8.13
1738244474.0933185,27369,0,0,,0.0,-0.07,0.27,0.81,0.51,0.45,-1.86,1.49,-9.38,0.06,6.53,0.0,0.0,0.0,-3.83,3.69,8.23
1738244474.1104326,27370,0,0,,0.0,-0.05,0.27,0.82,0.5,0.51,-1.43,1.18,-9.58,-0.02,6.47,0.0,0.0,0.0,-3.67,3.78,8.26
1738244474.1280289,27371,0,0,,0.0,-0.04,0.27,0.82,0.5,0.51,-1.0,0.7,-9.04,-0.33,5.3,0.0,0.0,0.0,-3.43,3.92,8.3
1738244474.1444087,27372,0,0,,0.0,-0.04,0.27,0.82,0.5,0.45,-0.38,0.18,-8.36,-0.6,4.35,0.0,0.0,0.0,-3.32,4.01,8.3
1738244474.1626809,27373,0,0,,0.0,-0.04,0.28,0.82,0.5,0.4,-0.03,-0.08,-8.31,-0.22,4.12,0.0,0.0,0.0,-3.35,4.06,8.26
1738244474.1789083,27374,0,0,,0.0,-0.05,0.28,0.82,0.5,0.28,0.64,-0.47,-8.7,0.09,4.59,0.0,0.0,0.0,-3.52,4.07,8.19
1738244474.1949291,27375,0,0,,0.0,-0.05,0.29,0.81,0.5,0.27,1.04,-0.53,-10.74,1.82,7.3,0.0,0.0,0.0,-3.62,4.07,8.15
1738244474.2129424,27376,0,0,,0.0,-0.06,0.29,0.81,0.5,0.19,0.96,-0.41,-9.38,1.44,6.77,0.0,0.0,0.0,-3.79,4.05,8.08
1738244474.229215,27377,0,0,,0.0,-0.07,0.29,0.81,0.5,-0.39,0.75,-0.32,-7.5,-0.67,5.54,0.0,0.0,0.0,-3.94,3.96,8.05
1738244474.244652,27378,0,0,,0.0,-0.07,0.29,0.81,0.51,-0.95,0.77,-0.62,-8.8,5.4,9.6,0.0,0.0,0.0,-4.02,3.86,8.06
1738244474.2631724,27379,0,0,,0.0,-0.08,0.28,0.81,0.51,-1.55,0.45,-0.43,-6.89,3.42,9.77,0.0,0.0,0.0,-4.08,3.61,8.14
1738244474.2796605,27380,0,0,,0.0,-0.08,0.27,0.82,0.5,-1.33,-0.36,0.18,-5.78,6.79,17.24,0.0,0.0,0.0,-3.94,3.45,8.28
1738244474.2949305,27381,0,0,,0.0,-0.08,0.26,0.82,0.5,-0.23,-1.29,0.6,4.65,4.52,8.24,0.0,0.0,0.0,-3.81,3.45,8.34
1738244474.3128998,27382,0,0,,0.0,-0.07,0.26,0.82,0.5,-0.35,-0.89,0.23,-0.53,6.95,7.17,0.0,0.0,0.0,-3.72,3.38,8.41
1738244474.3296247,27383,0,0,,0.0,-0.08,0.25,0.82,0.51,-0.93,0.37,-0.48,-5.49,3.91,8.67,0.0,0.0,0.0,-3.82,3.19,8.44
1738244474.3453739,27384,0,0,,0.0,-0.09,0.25,0.82,0.51,-0.71,0.12,-0.29,-5.35,1.03,9.27,0.0,0.0,0.0,-3.84,3.12,8.46
1738244474.363606,27385,0,0,,0.0,-0.09,0.24,0.82,0.51,-0.48,-0.04,-0.16,-4.02,1.74,8.57,0.0,0.0,0.0,-3.84,3.05,8.49
1738244474.3793948,27386,0,0,,0.0,-0.09,0.24,0.82,0.51,-0.18,-0.0,0.02,-4.03,1.06,9.12,0.0,0.0,0.0,-3.84,3.04,8.49
1738244474.39478,27387,0,0,,0.0,-0.09,0.24,0.82,0.51,0.2,0.09,0.12,-3.01,2.35,8.42,0.0,0.0,0.0,-3.84,3.06,8.48
1738244474.412672,27388,0,0,,0.0,-0.09,0.25,0.82,0.5,0.3,0.22,0.13,-3.61,2.16,8.64,0.0,0.0,0.0,-3.87,3.12,8.44
1738244474.4297533,27389,0,0,,0.0,-0.09,0.25,0.82,0.5,0.41,0.31,0.17,-4.38,2.5,8.06,0.0,0.0,0.0,-3.91,3.2,8.39
1738244474.4448807,27390,0,0,,0.0,-0.09,0.26,0.82,0.5,0.4,0.28,0.17,-4.18,3.34,8.31,0.0,0.0,0.0,-3.93,3.24,8.37
1738244474.4633272,27391,0,0,,0.0,-0.09,0.26,0.82,0.5,0.37,0.25,0.17,-4.06,3.13,8.19,0.0,0.0,0.0,-3.96,3.31,8.33
1738244474.4796913,27392,0,0,,0.0,-0.09,0.26,0.82,0.5,0.33,0.25,0.14,-4.25,3.57,8.39,0.0,0.0,0.0,-3.99,3.37,8.29
1738244474.4956133,27393,0,0,,0.0,-0.09,0.26,0.82,0.5,0.21,0.21,0.1,-4.51,3.18,8.15,0.0,0.0,0.0,-4.01,3.39,8.27
1738244474.5135899,27394,0,0,,0.0,-0.09,0.27,0.82,0.5,0.14,0.19,0.08,-3.72,3.11,8.49,0.0,0.0,0.0,-4.03,3.42,8.25
1738244474.52966,27395,0,0,,0.0,-0.09,0.27,0.82,0.5,0.16,0.21,0.08,-4.71,2.97,8.24,0.0,0.0,0.0,-4.06,3.46,8.22
1738244474.5455987,27396,0,0,,0.0,-0.09,0.27,0.82,0.5,0.2,0.16,0.1,-3.96,2.83,8.33,0.0,0.0,0.0,-4.06,3.48,8.21
1738244474.5638196,27397,0,0,,0.0,-0.09,0.27,0.82,0.49,0.19,0.17,0.1,-4.5,3.17,8.38,0.0,0.0,0.0,-4.08,3.52,8.18
1738244474.5804832,27398,0,0,,0.0,-0.09,0.28,0.82,0.49,0.2,0.14,0.1,-4.01,3.24,8.18,0.0,0.0,0.0,-4.1,3.55,8.16
1738244474.595564,27399,0,0,,0.0,-0.09,0.28,0.82,0.49,0.13,0.12,0.06,-4.0,3.31,8.42,0.0,0.0,0.0,-4.11,3.56,8.15
1738244474.6128926,27400,0,0,,0.0,-0.09,0.28,0.82,0.49,0.1,0.08,0.05,-4.07,3.69,8.2,0.0,0.0,0.0,-4.12,3.58,8.14
1738244474.629843,27401,0,0,,0.0,-0.09,0.28,0.82,0.49,0.0,0.03,-0.01,-4.08,3.76,8.19,0.0,0.0,0.0,-4.12,3.58,8.14
1738244474.6457686,27402,0,0,,0.0,-0.09,0.28,0.82,0.49,-0.07,-0.02,-0.08,-4.39,3.54,8.17,0.0,0.0,0.0,-4.12,3.57,8.14
1738244474.6629803,27403,0,0,,0.0,-0.09,0.28,0.82,0.49,-0.1,-0.05,-0.1,-4.36,3.61,8.39,0.0,0.0,0.0,-4.12,3.54,8.16
1738244474.6798239,27404,0,0,,0.0,-0.09,0.27,0.82,0.5,-0.15,-0.14,-0.16,-4.96,3.64,8.1,0.0,0.0,0.0,-4.1,3.5,8.18
1738244474.6951816,27405,0,0,,0.0,-0.09,0.27,0.82,0.5,-0.28,-0.28,-0.24,-4.33,3.46,7.79,0.0,0.0,0.0,-4.09,3.46,8.2
1738244474.7137043,27406,0,0,,0.0,-0.09,0.27,0.82,0.5,-0.33,-0.29,-0.29,-5.12,3.42,7.99,0.0,0.0,0.0,-4.06,3.38,8.25
1738244474.730104,27407,0,0,,0.0,-0.09,0.26,0.82,0.5,-0.37,-0.31,-0.28,-4.03,2.48,8.31,0.0,0.0,0.0,-4.03,3.31,8.3
1738244474.7455971,27408,0,0,,0.0,-0.09,0.26,0.82,0.5,-0.29,-0.26,-0.22,-4.0,2.38,8.39,0.0,0.0,0.0,-4.02,3.28,8.32
1738244474.7634697,27409,0,0,,0.0,-0.09,0.26,0.82,0.51,-0.23,-0.25,-0.17,-4.0,2.86,8.57,0.0,0.0,0.0,-3.99,3.23,8.35
1738244474.7805116,27410,0,0,,0.0,-0.09,0.26,0.82,0.51,-0.15,-0.15,-0.11,-3.42,2.46,8.7,0.0,0.0,0.0,-3.97,3.2,8.37
1738244474.796092,27411,0,0,,0.0,-0.09,0.25,0.82,0.51,-0.06,-0.08,-0.05,-4.59,2.39,8.34,0.0,0.0,0.0,-3.97,3.2,8.37
1738244474.813797,27412,0,0,,0.0,-0.09,0.25,0.82,0.51,-0.03,-0.05,-0.02,-4.23,2.85,8.38,0.0,0.0,0.0,-3.96,3.19,8.37
1738244474.8310506,27413,0,0,,0.0,-0.09,0.25,0.82,0.51,0.01,-0.03,0.01,-4.17,3.16,8.47,0.0,0.0,0.0,-3.96,3.19,8.38
1738244474.845923,27414,0,0,,0.0,-0.09,0.25,0.82,0.51,0.02,-0.04,0.01,-3.33,3.12,8.44,0.0,0.0,0.0,-3.95,3.2,8.38
1738244474.864612,27415,0,0,,0.0,-0.09,0.25,0.82,0.51,0.0,-0.04,0.01,-4.6,3.33,8.26,0.0,0.0,0.0,-3.95,3.19,8.38
1738244474.880895,27416,0,0,,0.0,-0.09,0.25,0.82,0.51,-0.03,-0.04,-0.01,-3.77,3.67,8.58,0.0,0.0,0.0,-3.94,3.19,8.38
1738244474.8961735,27417,0,0,,0.0,-0.09,0.25,0.82,0.51,-0.07,-0.04,-0.03,-3.61,2.69,8.43,0.0,0.0,0.0,-3.94,3.18,8.39
1738244474.9141574,27418,0,0,,0.0,-0.09,0.25,0.82,0.51,-0.06,-0.05,-0.03,-4.36,3.29,8.31,0.0,0.0,0.0,-3.94,3.17,8.4
1738244474.9309494,27419,0,0,,0.0,-0.09,0.25,0.82,0.51,-0.07,-0.05,-0.06,-3.93,2.58,8.38,0.0,0.0,0.0,-3.93,3.15,8.41
1738244474.9459307,27420,0,0,,0.0,-0.09,0.25,0.82,0.51,-0.06,-0.08,-0.05,-3.8,2.8,8.43,0.0,0.0,0.0,-3.92,3.14,8.41
1738244474.964026,27421,0,0,,0.0,-0.09,0.25,0.82,0.51,-0.05,-0.06,-0.06,-4.85,2.72,8.26,0.0,0.0,0.0,-3.91,3.13,8.42
1738244474.9806468,27422,0,0,,0.0,-0.09,0.25,0.82,0.51,-0.03,-0.07,-0.04,-4.5,2.63,8.35,0.0,0.0,0.0,-3.91,3.12,8.43
1738244474.9958582,27423,0,0,,0.0,-0.09,0.25,0.82,0.51,0.0,-0.07,-0.02,-3.71,2.94,8.57,0.0,0.0,0.0,-3.9,3.12,8.43
1738244475.0138717,27424,0,0,,0.0,-0.09,0.25,0.82,0.51,0.01,-0.06,-0.02,-3.87,3.07,8.57,0.0,0.0,0.0,-3.9,3.12,8.43
1738244475.030631,27425,0,0,,0.0,-0.09,0.25,0.82,0.51,0.03,-0.04,-0.01,-3.79,3.22,8.55,0.0,0.0,0.0,-3.89,3.13,8.43
1738244475.0461934,27426,0,0,,0.0,-0.09,0.25,0.82,0.51,0.03,-0.02,-0.02,-4.11,2.39,8.38,0.0,0.0,0.0,-3.89,3.13,8.43
1738244475.0641892,27427,0,0,,0.0,-0.09,0.25,0.82,0.51,0.03,-0.04,-0.0,-3.48,3.49,8.57,0.0,0.0,0.0,-3.88,3.13,8.43
1738244475.0811725,27428,0,0,,0.0,-0.09,0.25,0.82,0.51,0.03,-0.01,-0.01,-3.94,2.51,8.45,0.0,0.0,0.0,-3.88,3.14,8.43
1738244475.0959628,27429,0,0,,0.0,-0.09,0.25,0.82,0.51,0.02,-0.01,-0.01,-3.72,2.84,8.42,0.0,0.0,0.0,-3.88,3.14,8.43
1738244475.113397,27430,0,0,,0.0,-0.09,0.25,0.82,0.51,0.02,-0.01,-0.01,-4.34,3.1,8.44,0.0,0.0,0.0,-3.89,3.14,8.43
1738244475.1312053,27431,0,0,,0.0,-0.09,0.25,0.82,0.51,0.02,0.0,-0.01,-3.4,2.93,8.48,0.0,0.0,0.0,-3.89,3.14,8.43
1738244475.1462004,27432,0,0,,0.0,-0.09,0.25,0.82,0.51,0.03,0.01,-0.01,-3.16,2.96,8.59,0.0,0.0,0.0,-3.89,3.15,8.42
1738244475.1642663,27433,0,0,,0.0,-0.09,0.25,0.82,0.51,0.04,0.02,-0.0,-4.2,2.94,8.27,0.0,0.0,0.0,-3.89,3.15,8.42
1738244475.1813397,27434,0,0,,0.0,-0.09,0.25,0.82,0.51,0.03,0.02,-0.01,-3.71,3.19,8.42,0.0,0.0,0.0,-3.9,3.16,8.42
1738244475.196691,27435,0,0,,0.0,-0.09,0.25,0.82,0.51,0.03,0.01,-0.01,-4.48,2.51,8.31,0.0,0.0,0.0,-3.9,3.16,8.42
1738244475.2134683,27436,0,0,,0.0,-0.09,0.25,0.82,0.51,0.02,0.0,-0.01,-3.81,3.23,8.45,0.0,0.0,0.0,-3.9,3.17,8.42
1738244475.2307718,27437,0,0,,0.0,-0.09,0.25,0.82,0.51,0.03,0.01,-0.01,-4.15,3.24,8.38,0.0,0.0,0.0,-3.9,3.17,8.41
1738244475.2462077,27438,0,0,,0.0,-0.09,0.25,0.82,0.51,0.03,0.0,-0.0,-4.06,2.7,8.35,0.0,0.0,0.0,-3.9,3.17,8.41
1738244475.2639961,27439,0,0,,0.0,-0.09,0.25,0.82,0.51,0.03,0.02,-0.01,-4.52,2.89,8.39,0.0,0.0,0.0,-3.9,3.17,8.41
1738244475.2811213,27440,0,0,,0.0,-0.09,0.25,0.82,0.51,0.04,0.03,-0.01,-3.99,2.68,8.35,0.0,0.0,0.0,-3.9,3.18,8.41
1738244475.2962058,27441,0,0,,0.0,-0.09,0.25,0.82,0.51,0.05,0.04,-0.03,-4.08,2.68,8.31,0.0,0.0,0.0,-3.91,3.19,8.4
1738244475.3139448,27442,0,0,,0.0,-0.09,0.25,0.82,0.51,0.05,0.05,-0.03,-3.37,3.09,8.41,0.0,0.0,0.0,-3.92,3.19,8.39
1738244475.3313217,27443,0,0,,0.0,-0.09,0.25,0.82,0.51,0.05,0.09,-0.05,-3.65,2.93,8.4,0.0,0.0,0.0,-3.93,3.19,8.39
1738244475.346226,27444,0,0,,0.0,-0.09,0.25,0.82,0.51,0.05,0.14,-0.07,-4.54,2.68,8.46,0.0,0.0,0.0,-3.95,3.2,8.38
1738244475.364342,27445,0,0,,0.0,-0.09,0.26,0.82,0.51,0.05,0.18,-0.08,-3.86,2.94,8.46,0.0,0.0,0.0,-3.97,3.2,8.37
1738244475.3815148,27446,0,0,,0.0,-0.09,0.26,0.81,0.51,0.06,0.25,-0.1,-3.75,3.18,8.39,0.0,0.0,0.0,-4.01,3.2,8.35
1738244475.3965988,27447,0,0,,0.0,-0.09,0.26,0.81,0.51,0.07,0.35,-0.15,-3.76,2.99,8.76,0.0,0.0,0.0,-4.07,3.2,8.32
1738244475.4141414,27448,0,0,,0.0,-0.1,0.26,0.81,0.51,0.08,0.4,-0.15,-3.78,3.2,8.38,0.0,0.0,0.0,-4.1,3.2,8.3
1738244475.4318156,27449,0,0,,0.0,-0.1,0.26,0.81,0.51,0.1,0.52,-0.18,-3.71,2.97,8.31,0.0,0.0,0.0,-4.19,3.2,8.26
1738244475.4468188,27450,0,0,,0.0,-0.1,0.27,0.81,0.51,0.1,0.71,-0.24,-4.52,2.61,8.26,0.0,0.0,0.0,-4.31,3.2,8.2
1738244475.4647186,27451,0,0,,0.0,-0.11,0.27,0.81,0.51,0.1,0.81,-0.24,-4.06,3.3,8.79,0.0,0.0,0.0,-4.38,3.19,8.16
1738244475.4816115,27452,0,0,,0.0,-0.12,0.28,0.8,0.51,0.09,0.94,-0.25,-4.41,3.15,8.21,0.0,0.0,0.0,-4.54,3.19,8.08
1738244475.4968147,27453,0,0,,0.0,-0.12,0.28,0.8,0.51,0.05,1.14,-0.36,-4.49,3.1,8.54,0.0,0.0,0.0,-4.73,3.17,7.97
1738244475.5147133,27454,0,0,,0.0,-0.13,0.29,0.8,0.51,0.02,1.21,-0.4,-5.55,2.41,8.02,0.0,0.0,0.0,-4.84,3.15,7.92
1738244475.5321271,27455,0,0,,0.0,-0.15,0.29,0.8,0.51,-0.0,1.33,-0.43,-5.26,2.64,7.94,0.0,0.0,0.0,-5.06,3.11,7.79
1738244475.5471466,27456,0,0,,0.0,-0.15,0.29,0.79,0.51,-0.03,1.42,-0.44,-4.92,2.57,7.99,0.0,0.0,0.0,-5.3,3.06,7.65
1738244475.5647418,27457,0,0,,0.0,-0.16,0.3,0.79,0.51,-0.01,1.47,-0.42,-5.42,2.19,7.82,0.0,0.0,0.0,-5.42,3.04,7.58
1738244475.582049,27458,0,0,,0.0,-0.18,0.31,0.78,0.51,0.04,1.55,-0.38,-5.32,2.78,7.68,0.0,0.0,0.0,-5.66,3.0,7.41
1738244475.5973356,27459,0,0,,0.0,-0.18,0.31,0.78,0.51,0.05,1.6,-0.39,-6.28,2.71,7.16,0.0,0.0,0.0,-5.91,2.97,7.23
1738244475.614845,27460,0,0,,0.0,-0.2,0.32,0.78,0.51,0.01,1.63,-0.43,-6.3,2.81,7.38,0.0,0.0,0.0,-6.04,2.94,7.14
1738244475.6323695,27461,0,0,,0.0,-0.21,0.33,0.77,0.5,-0.04,1.64,-0.49,-7.1,2.69,7.06,0.0,0.0,0.0,-6.28,2.88,6.94
1738244475.6473844,27462,0,0,,0.0,-0.22,0.33,0.77,0.5,-0.1,1.63,-0.6,-6.82,2.58,6.97,0.0,0.0,0.0,-6.53,2.8,6.74
1738244475.6650226,27463,0,0,,0.0,-0.23,0.33,0.76,0.5,-0.12,1.64,-0.67,-7.38,2.49,6.87,0.0,0.0,0.0,-6.66,2.75,6.64
1738244475.6819532,27464,0,0,,0.0,-0.25,0.34,0.75,0.5,-0.12,1.67,-0.83,-7.08,2.51,6.94,0.0,0.0,0.0,-6.91,2.63,6.43
1738244475.6972098,27465,0,0,,0.0,-0.26,0.34,0.75,0.5,-0.22,1.89,-1.02,-7.56,2.66,7.0,0.0,0.0,0.0,-7.18,2.48,6.19
1738244475.7150178,27466,0,0,,0.0,-0.28,0.35,0.74,0.5,-0.19,1.89,-1.06,-7.06,2.27,6.92,0.0,0.0,0.0,-7.32,2.39,6.06
1738244475.7322896,27467,0,0,,0.0,-0.3,0.35,0.73,0.5,-0.15,2.02,-1.15,-8.07,1.69,6.8,0.0,0.0,0.0,-7.6,2.21,5.78
1738244475.747692,27468,0,0,,0.0,-0.31,0.36,0.72,0.5,-0.03,2.23,-1.29,-7.82,2.85,6.64,0.0,0.0,0.0,-7.88,2.02,5.46
1738244475.7652009,27469,0,0,,0.0,-0.33,0.36,0.71,0.5,-0.02,2.35,-1.38,-8.53,2.38,6.98,0.0,0.0,0.0,-8.03,1.91,5.28
1738244475.7824914,27470,0,0,,0.0,-0.35,0.37,0.69,0.51,-0.07,2.54,-1.56,-8.32,2.95,6.25,0.0,0.0,0.0,-8.33,1.66,4.88
1738244475.7976615,27471,0,0,,0.0,-0.37,0.37,0.69,0.51,-0.16,2.79,-1.76,-8.74,2.68,6.77,0.0,0.0,0.0,-8.63,1.37,4.44
1738244475.8149514,27472,0,0,,0.0,-0.39,0.38,0.67,0.51,-0.18,2.88,-1.84,-8.7,2.42,6.58,0.0,0.0,0.0,-8.77,1.21,4.2
1738244475.832561,27473,0,0,,0.0,-0.42,0.39,0.64,0.51,-0.19,3.11,-1.96,-10.37,2.64,7.41,0.0,0.0,0.0,-9.05,0.85,3.67
1738244475.8480961,27474,0,0,,0.0,-0.43,0.39,0.63,0.51,0.2,3.08,-1.84,-11.16,2.27,7.83,0.0,0.0,0.0,-9.27,0.52,3.12
1738244475.865339,27475,0,0,,0.0,-0.46,0.4,0.61,0.51,0.43,2.94,-1.8,-11.66,2.5,7.91,0.0,0.0,0.0,-9.37,0.37,2.85
1738244475.8827598,27476,0,0,,0.0,-0.47,0.4,0.59,0.51,0.31,2.34,-1.72,-14.79,-2.09,9.09,0.0,0.0,0.0,-9.5,0.07,2.39
1738244475.8975775,27477,0,0,,0.0,-0.47,0.4,0.59,0.52,0.59,0.6,-1.21,-11.24,4.98,6.71,0.0,0.0,0.0,-9.55,-0.13,2.2
1738244475.9154966,27478,0,0,,0.0,-0.48,0.4,0.58,0.52,-0.26,0.08,-1.19,-10.04,2.47,5.12,0.0,0.0,0.0,-9.55,-0.25,2.2
1738244475.9333582,27479,0,0,,0.0,-0.48,0.39,0.58,0.53,-0.53,-0.28,-0.95,-6.64,2.72,4.12,0.0,0.0,0.0,-9.53,-0.46,2.22
1738244475.9476447,27480,0,0,,0.0,-0.48,0.38,0.58,0.53,-0.47,-0.48,-0.69,-5.03,2.75,4.2,0.0,0.0,0.0,-9.51,-0.62,2.3
1738244475.9652884,27481,0,0,,0.0,-0.48,0.38,0.58,0.53,-0.38,-0.59,-0.54,-4.26,3.23,4.11,0.0,0.0,0.0,-9.49,-0.68,2.35
1738244475.983151,27482,0,0,,0.0,-0.48,0.37,0.59,0.53,-0.21,-0.85,-0.03,-2.99,3.9,3.95,0.0,0.0,0.0,-9.45,-0.72,2.49
1738244475.9981294,27483,0,0,,0.0,-0.48,0.37,0.59,0.53,-0.1,-1.11,0.55,-2.79,2.84,3.75,0.0,0.0,0.0,-9.4,-0.66,2.68
1738244476.0152495,27484,0,0,,0.0,-0.47,0.37,0.6,0.53,-0.03,-1.23,0.76,-3.4,1.61,4.35,0.0,0.0,0.0,-9.38,-0.59,2.79
1738244476.0334692,27485,0,0,,0.0,-0.45,0.36,0.62,0.53,0.15,-1.63,0.99,-4.15,1.09,4.66,0.0,0.0,0.0,-9.3,-0.41,3.07
1738244476.0492415,27486,0,0,,0.0,-0.44,0.36,0.62,0.53,0.26,-2.07,1.05,-4.75,1.0,4.27,0.0,0.0,0.0,-9.18,-0.21,3.42
1738244476.0661159,27487,0,0,,0.0,-0.42,0.36,0.64,0.54,0.3,-2.25,1.11,-4.47,0.71,4.01,0.0,0.0,0.0,-9.02,0.0,3.83
1738244476.0837195,27488,0,0,,0.0,-0.4,0.35,0.65,0.54,0.39,-2.44,1.29,-5.13,0.36,4.41,0.0,0.0,0.0,-8.93,0.13,4.04
1738244476.0999823,27489,0,0,,0.0,-0.39,0.35,0.66,0.54,0.51,-2.63,1.38,-5.98,0.22,5.39,0.0,0.0,0.0,-8.71,0.41,4.48
1738244476.1167758,27490,0,0,,0.0,-0.36,0.34,0.68,0.54,0.59,-2.73,1.37,-7.12,0.72,6.06,0.0,0.0,0.0,-8.44,0.69,4.94
1738244476.1341367,27491,0,0,,0.0,-0.33,0.33,0.69,0.55,0.7,-2.98,1.26,-7.84,2.36,5.99,0.0,0.0,0.0,-8.28,0.82,5.17
1738244476.1495972,27492,0,0,,0.0,-0.32,0.33,0.7,0.55,0.59,-3.06,1.43,-8.08,3.25,5.39,0.0,0.0,0.0,-7.94,1.1,5.64
1738244476.1667027,27493,0,0,,0.0,-0.29,0.32,0.72,0.55,0.55,-2.96,1.64,-9.09,3.62,5.82,0.0,0.0,0.0,-7.56,1.43,6.06
1738244476.1837304,27494,0,0,,0.0,-0.26,0.32,0.73,0.54,0.47,-2.7,2.08,-9.32,3.46,6.21,0.0,0.0,0.0,-7.37,1.61,6.25
1738244476.1997757,27495,0,0,,0.0,-0.25,0.32,0.74,0.54,0.37,-2.54,2.36,-9.72,2.53,7.51,0.0,0.0,0.0,-6.97,1.97,6.6
1738244476.2169576,27496,0,0,,0.0,-0.22,0.31,0.76,0.53,0.33,-2.54,2.42,-9.57,2.09,7.74,0.0,0.0,0.0,-6.54,2.33,6.92
1738244476.23439,27497,0,0,,0.0,-0.19,0.31,0.77,0.52,0.31,-2.6,2.36,-9.34,1.71,8.3,0.0,0.0,0.0,-6.31,2.5,7.07
1738244476.2501943,27498,0,0,,0.0,-0.18,0.3,0.78,0.51,0.4,-2.71,2.22,-8.93,1.43,8.67,0.0,0.0,0.0,-5.81,2.82,7.37
1738244476.2666588,27499,0,0,,0.0,-0.15,0.3,0.8,0.51,0.44,-2.73,2.1,-9.03,1.68,8.87,0.0,0.0,0.0,-5.3,3.11,7.63
1738244476.2846665,27500,0,0,,0.0,-0.12,0.29,0.81,0.5,0.55,-2.72,1.85,-9.13,2.21,8.94,0.0,0.0,0.0,-5.04,3.24,7.75
1738244476.3011343,27501,0,0,,0.0,-0.11,0.29,0.81,0.5,0.61,-2.65,1.67,-8.99,2.42,8.6,0.0,0.0,0.0,-4.52,3.49,7.96
1738244476.3171732,27502,0,0,,0.0,-0.08,0.28,0.82,0.49,0.64,-2.57,1.58,-8.58,2.02,7.4,0.0,0.0,0.0,-4.02,3.72,8.12
1738244476.3347423,27503,0,0,,0.0,-0.06,0.28,0.82,0.49,0.67,-2.26,1.38,-8.33,1.23,7.01,0.0,0.0,0.0,-3.59,3.92,8.23
1738244476.3507192,27504,0,0,,0.0,-0.05,0.28,0.83,0.49,0.69,-1.72,1.03,-8.24,1.0,6.82,0.0,0.0,0.0,-3.41,4.01,8.26
1738244476.3669438,27505,0,0,,0.0,-0.03,0.27,0.83,0.49,0.6,-1.42,0.79,-7.4,0.45,5.05,0.0,0.0,0.0,-3.16,4.14,8.3
1738244476.3841157,27506,0,0,,0.0,-0.03,0.28,0.83,0.49,0.39,-0.64,0.31,-7.5,0.92,4.75,0.0,0.0,0.0,-3.09,4.18,8.3
1738244476.4002542,27507,0,0,,0.0,-0.03,0.28,0.83,0.49,0.13,0.26,0.09,-10.12,2.59,6.97,0.0,0.0,0.0,-3.09,4.22,8.28
1738244476.417038,27508,0,0,,0.0,-0.03,0.28,0.83,0.48,0.02,0.41,0.19,-9.82,2.46,6.7,0.0,0.0,0.0,-3.15,4.22,8.26
1738244476.4341586,27509,0,0,,0.0,-0.04,0.28,0.83,0.48,-0.27,0.56,0.27,-9.63,0.35,6.21,0.0,0.0,0.0,-3.18,4.21,8.26
1738244476.4504068,27510,0,0,,0.0,-0.04,0.28,0.83,0.48,-0.4,0.62,0.11,-8.9,-0.48,5.32,0.0,0.0,0.0,-3.26,4.16,8.25
1738244476.4669871,27511,0,0,,0.0,-0.05,0.28,0.83,0.48,-0.5,0.74,-0.05,-8.87,-0.55,5.0,0.0,0.0,0.0,-3.4,4.07,8.24
1738244476.4847322,27512,0,0,,0.0,-0.06,0.28,0.83,0.48,-0.57,1.02,-0.33,-8.24,-0.16,4.49,0.0,0.0,0.0,-3.5,4.02,8.23
1738244476.5004346,27513,0,0,,0.0,-0.07,0.28,0.83,0.48,-0.56,1.25,-0.44,-9.44,2.25,6.9,0.0,0.0,0.0,-3.72,3.9,8.18
1738244476.5175288,27514,0,0,,0.0,-0.08,0.27,0.83,0.48,-1.23,1.0,-0.54,-7.56,4.4,10.23,0.0,0.0,0.0,-3.88,3.65,8.23
1738244476.534244,27515,0,0,,0.0,-0.09,0.26,0.84,0.47,-1.12,0.1,0.17,-5.13,4.28,13.09,0.0,0.0,0.0,-3.88,3.56,8.26
1738244476.5507145,27516,0,0,,0.0,-0.08,0.26,0.84,0.47,-0.87,-0.82,0.28,0.97,5.39,10.47,0.0,0.0,0.0,-3.76,3.41,8.38
1738244476.5669508,27517,0,0,,0.0,-0.08,0.25,0.84,0.47,-0.31,-0.98,0.28,3.13,6.42,8.34,0.0,0.0,0.0,-3.64,3.36,8.45
1738244476.5846596,27518,0,0,,0.0,-0.09,0.24,0.84,0.48,-0.9,0.28,-0.52,-2.12,5.24,8.67,0.0,0.0,0.0,-3.68,3.27,8.47
1738244476.6005,27519,0,0,,0.0,-0.09,0.24,0.84,0.48,-0.67,0.33,-0.42,-5.94,1.6,8.68,0.0,0.0,0.0,-3.79,3.09,8.49
1738244476.616922,27520,0,0,,0.0,-0.1,0.24,0.84,0.48,-0.5,0.12,-0.31,-5.82,2.32,9.09,0.0,0.0,0.0,-3.81,3.0,8.51
1738244476.6349342,27521,0,0,,0.0,-0.1,0.24,0.84,0.48,-0.27,-0.05,-0.09,-3.84,1.03,8.81,0.0,0.0,0.0,-3.81,2.98,8.52
1738244476.6513534,27522,0,0,,0.0,-0.1,0.24,0.84,0.48,0.02,0.04,0.0,-3.8,1.64,8.68,0.0,0.0,0.0,-3.82,2.97,8.52
1738244476.6674268,27523,0,0,,0.0,-0.1,0.24,0.84,0.48,0.13,0.08,0.04,-3.8,2.54,8.68,0.0,0.0,0.0,-3.83,3.0,8.51
1738244476.6852002,27524,0,0,,0.0,-0.1,0.24,0.84,0.48,0.23,0.17,0.05,-3.76,2.56,8.3,0.0,0.0,0.0,-3.84,3.02,8.49
1738244476.7016332,27525,0,0,,0.0,-0.1,0.24,0.84,0.48,0.22,0.16,0.04,-4.48,3.53,8.22,0.0,0.0,0.0,-3.87,3.06,8.47
1738244476.717587,27526,0,0,,0.0,-0.1,0.24,0.84,0.48,0.18,0.16,-0.0,-3.96,3.66,8.46,0.0,0.0,0.0,-3.89,3.08,8.45
1738244476.7349246,27527,0,0,,0.0,-0.1,0.24,0.84,0.48,0.05,0.09,-0.05,-4.51,3.22,8.01,0.0,0.0,0.0,-3.9,3.09,8.44
1738244476.7522218,27528,0,0,,0.0,-0.1,0.24,0.84,0.48,-0.01,0.02,-0.06,-3.95,2.7,8.58,0.0,0.0,0.0,-3.91,3.08,8.44
1738244476.7675903,27529,0,0,,0.0,-0.1,0.24,0.84,0.48,0.01,0.01,-0.05,-4.27,2.16,8.45,0.0,0.0,0.0,-3.92,3.08,8.44
1738244476.7854526,27530,0,0,,0.0,-0.1,0.25,0.84,0.48,0.13,0.03,-0.0,-3.63,2.23,8.67,0.0,0.0,0.0,-3.92,3.09,8.43
1738244476.801766,27531,0,0,,0.0,-0.1,0.25,0.84,0.48,0.24,0.08,0.05,-4.04,2.21,8.58,0.0,0.0,0.0,-3.93,3.13,8.41
1738244476.817923,27532,0,0,,0.0,-0.1,0.25,0.84,0.48,0.29,0.06,0.09,-4.76,2.57,8.44,0.0,0.0,0.0,-3.93,3.19,8.39
1738244476.835546,27533,0,0,,0.0,-0.1,0.25,0.84,0.48,0.37,0.09,0.11,-4.2,2.51,8.42,0.0,0.0,0.0,-3.94,3.23,8.37
1738244476.852801,27534,0,0,,0.0,-0.09,0.26,0.84,0.48,0.42,0.04,0.14,-4.05,3.1,8.26,0.0,0.0,0.0,-3.94,3.3,8.34
1738244476.8687446,27535,0,0,,0.0,-0.09,0.26,0.84,0.48,0.41,0.04,0.13,-3.64,3.71,8.46,0.0,0.0,0.0,-3.93,3.38,8.31
1738244476.8861005,27536,0,0,,0.0,-0.09,0.26,0.83,0.48,0.34,0.01,0.11,-3.67,3.6,8.08,0.0,0.0,0.0,-3.93,3.41,8.3
1738244476.9026601,27537,0,0,,0.0,-0.09,0.26,0.83,0.48,0.21,0.02,0.04,-3.8,3.86,8.17,0.0,0.0,0.0,-3.93,3.45,8.28
1738244476.918735,27538,0,0,,0.0,-0.09,0.26,0.83,0.48,0.15,0.03,0.01,-4.56,3.48,8.05,0.0,0.0,0.0,-3.94,3.47,8.27
1738244476.9362705,27539,0,0,,0.0,-0.09,0.26,0.83,0.48,0.04,-0.01,-0.04,-3.93,3.75,8.19,0.0,0.0,0.0,-3.94,3.47,8.27
1738244476.9532514,27540,0,0,,0.0,-0.09,0.26,0.83,0.48,-0.03,-0.02,-0.06,-4.2,3.11,8.1,0.0,0.0,0.0,-3.94,3.47,8.28
1738244476.968593,27541,0,0,,0.0,-0.09,0.26,0.83,0.48,-0.04,-0.03,-0.05,-4.83,3.21,8.18,0.0,0.0,0.0,-3.93,3.45,8.28
1738244476.9858136,27542,0,0,,0.0,-0.09,0.26,0.83,0.48,-0.05,-0.02,-0.05,-4.2,2.66,8.44,0.0,0.0,0.0,-3.93,3.45,8.29
1738244477.0031602,27543,0,0,,0.0,-0.09,0.26,0.83,0.48,-0.02,-0.04,-0.02,-4.34,2.83,8.22,0.0,0.0,0.0,-3.93,3.44,8.29
1738244477.018801,27544,0,0,,0.0,-0.09,0.26,0.83,0.48,-0.01,-0.02,-0.02,-4.38,3.41,8.38,0.0,0.0,0.0,-3.92,3.44,8.29
1738244477.0363226,27545,0,0,,0.0,-0.09,0.26,0.83,0.48,0.03,-0.03,0.0,-3.89,3.01,8.37,0.0,0.0,0.0,-3.92,3.44,8.29
1738244477.0529225,27546,0,0,,0.0,-0.09,0.26,0.83,0.48,0.04,-0.03,0.01,-3.63,3.44,8.55,0.0,0.0,0.0,-3.92,3.45,8.29
1738244477.0687613,27547,0,0,,0.0,-0.09,0.26,0.83,0.48,0.05,-0.05,0.02,-4.66,3.1,8.17,0.0,0.0,0.0,-3.91,3.45,8.29
1738244477.085686,27548,0,0,,0.0,-0.09,0.26,0.83,0.48,0.03,-0.03,0.01,-3.54,3.19,8.52,0.0,0.0,0.0,-3.91,3.46,8.29
1738244477.1035326,27549,0,0,,0.0,-0.09,0.26,0.83,0.48,0.03,-0.02,-0.01,-4.21,2.88,8.26,0.0,0.0,0.0,-3.91,3.46,8.29
1738244477.1185932,27550,0,0,,0.0,-0.09,0.26,0.83,0.48,0.03,-0.04,0.0,-4.02,3.18,8.21,0.0,0.0,0.0,-3.9,3.47,8.29
1738244477.1362603,27551,0,0,,0.0,-0.09,0.26,0.83,0.48,0.03,-0.03,-0.0,-4.25,2.91,8.13,0.0,0.0,0.0,-3.9,3.47,8.29
1738244477.1531875,27552,0,0,,0.0,-0.09,0.26,0.83,0.48,0.03,-0.06,0.0,-3.37,3.2,8.38,0.0,0.0,0.0,-3.89,3.47,8.29
1738244477.1693587,27553,0,0,,0.0,-0.09,0.26,0.83,0.48,0.03,-0.05,-0.01,-3.58,3.63,8.54,0.0,0.0,0.0,-3.89,3.47,8.3
1738244477.1860805,27554,0,0,,0.0,-0.09,0.26,0.83,0.48,0.01,-0.06,-0.0,-4.12,3.19,8.08,0.0,0.0,0.0,-3.88,3.47,8.3
1738244477.2037299,27555,0,0,,0.0,-0.09,0.26,0.83,0.48,-0.01,-0.05,0.0,-3.8,2.92,8.35,0.0,0.0,0.0,-3.87,3.47,8.3
1738244477.219139,27556,0,0,,0.0,-0.09,0.26,0.83,0.48,-0.0,-0.04,0.01,-4.09,3.35,8.32,0.0,0.0,0.0,-3.87,3.47,8.31
1738244477.2362819,27557,0,0,,0.0,-0.09,0.26,0.83,0.48,-0.01,-0.03,0.01,-3.93,3.07,8.26,0.0,0.0,0.0,-3.87,3.47,8.31
1738244477.2542639,27558,0,0,,0.0,-0.09,0.26,0.83,0.48,-0.01,-0.02,0.01,-4.92,3.2,8.0,0.0,0.0,0.0,-3.86,3.47,8.31
1738244477.2694354,27559,0,0,,0.0,-0.09,0.26,0.83,0.48,-0.05,-0.02,0.0,-3.72,3.56,8.25,0.0,0.0,0.0,-3.86,3.47,8.31
1738244477.287417,27560,0,0,,0.0,-0.09,0.26,0.83,0.48,-0.08,0.01,-0.03,-4.52,3.16,8.14,0.0,0.0,0.0,-3.86,3.46,8.32
1738244477.3047252,27561,0,0,,0.0,-0.09,0.26,0.83,0.48,-0.11,-0.0,-0.05,-4.05,3.39,8.24,0.0,0.0,0.0,-3.86,3.44,8.32
1738244477.3197227,27562,0,0,,0.0,-0.09,0.26,0.83,0.48,-0.13,0.01,-0.08,-3.89,3.33,8.49,0.0,0.0,0.0,-3.87,3.41,8.33
1738244477.3377101,27563,0,0,,0.0,-0.09,0.26,0.83,0.48,-0.12,-0.01,-0.06,-3.76,2.96,8.52,0.0,0.0,0.0,-3.87,3.4,8.33
1738244477.3546472,27564,0,0,,0.0,-0.09,0.26,0.83,0.48,-0.12,-0.01,-0.07,-4.56,2.82,8.3,0.0,0.0,0.0,-3.87,3.38,8.34
1738244477.370721,27565,0,0,,0.0,-0.09,0.26,0.83,0.48,-0.12,-0.03,-0.05,-4.51,3.21,8.33,0.0,0.0,0.0,-3.87,3.35,8.35
1738244477.3873534,27566,0,0,,0.0,-0.09,0.26,0.83,0.48,-0.13,-0.03,-0.06,-4.02,2.88,8.38,0.0,0.0,0.0,-3.87,3.34,8.36
1738244477.4048722,27567,0,0,,0.0,-0.09,0.25,0.83,0.48,-0.14,-0.05,-0.07,-4.32,3.24,8.39,0.0,0.0,0.0,-3.87,3.31,8.37
1738244477.4193966,27568,0,0,,0.0,-0.09,0.25,0.83,0.48,-0.15,-0.05,-0.07,-3.83,3.21,8.51,0.0,0.0,0.0,-3.87,3.28,8.38
1738244477.4370673,27569,0,0,,0.0,-0.09,0.25,0.83,0.48,-0.14,-0.07,-0.06,-3.57,2.98,8.4,0.0,0.0,0.0,-3.86,3.27,8.39
1738244477.4549792,27570,0,0,,0.0,-0.09,0.25,0.83,0.48,-0.12,-0.06,-0.05,-3.81,2.96,8.61,0.0,0.0,0.0,-3.86,3.24,8.4
1738244477.4697402,27571,0,0,,0.0,-0.09,0.25,0.83,0.48,-0.1,-0.02,-0.06,-4.61,2.53,8.39,0.0,0.0,0.0,-3.86,3.22,8.41
1738244477.4882097,27572,0,0,,0.0,-0.09,0.25,0.83,0.48,-0.08,-0.02,-0.05,-4.27,2.66,8.49,0.0,0.0,0.0,-3.86,3.21,8.42
1738244477.5044005,27573,0,0,,0.0,-0.09,0.25,0.83,0.48,-0.06,-0.02,-0.04,-4.3,2.63,8.38,0.0,0.0,0.0,-3.86,3.2,8.42
1738244477.5202763,27574,0,0,,0.0,-0.09,0.25,0.83,0.48,-0.06,-0.01,-0.05,-3.89,3.17,8.41,0.0,0.0,0.0,-3.86,3.18,8.43
1738244477.5375183,27575,0,0,,0.0,-0.09,0.25,0.83,0.48,-0.04,-0.01,-0.05,-4.52,2.45,8.35,0.0,0.0,0.0,-3.86,3.18,8.43
1738244477.555541,27576,0,0,,0.0,-0.09,0.25,0.83,0.48,-0.02,0.01,-0.04,-4.64,2.82,8.32,0.0,0.0,0.0,-3.86,3.17,8.43
1738244477.5707917,27577,0,0,,0.0,-0.09,0.25,0.83,0.48,0.01,0.02,-0.05,-3.7,3.16,8.53,0.0,0.0,0.0,-3.87,3.17,8.43
1738244477.5876784,27578,0,0,,0.0,-0.09,0.25,0.83,0.49,0.01,0.03,-0.04,-4.04,2.73,8.4,0.0,0.0,0.0,-3.88,3.17,8.42
1738244477.6052926,27579,0,0,,0.0,-0.09,0.25,0.83,0.49,0.02,0.02,-0.05,-3.69,3.15,8.54,0.0,0.0,0.0,-3.88,3.17,8.42
1738244477.6206105,27580,0,0,,0.0,-0.09,0.25,0.83,0.49,0.02,0.04,-0.07,-4.55,2.89,8.3,0.0,0.0,0.0,-3.89,3.16,8.42
1738244477.6376746,27581,0,0,,0.0,-0.09,0.25,0.83,0.49,0.01,0.05,-0.08,-3.42,3.16,8.61,0.0,0.0,0.0,-3.9,3.16,8.42
1738244477.6553302,27582,0,0,,0.0,-0.09,0.25,0.83,0.49,0.03,0.09,-0.1,-4.41,2.61,8.2,0.0,0.0,0.0,-3.92,3.16,8.41
1738244477.6702733,27583,0,0,,0.0,-0.1,0.25,0.83,0.49,0.06,0.18,-0.12,-3.61,3.14,8.42,0.0,0.0,0.0,-3.95,3.16,8.39
1738244477.6878774,27584,0,0,,0.0,-0.1,0.25,0.83,0.49,0.06,0.26,-0.14,-4.59,3.13,9.27,0.0,0.0,0.0,-3.97,3.16,8.38
1738244477.7055602,27585,0,0,,0.0,-0.1,0.25,0.83,0.49,0.04,0.35,-0.14,-3.52,3.28,8.73,0.0,0.0,0.0,-4.03,3.15,8.35
1738244477.7205036,27586,0,0,,0.0,-0.1,0.26,0.83,0.49,0.05,0.57,-0.24,-3.64,3.12,8.9,0.0,0.0,0.0,-4.13,3.14,8.31
1738244477.7383065,27587,0,0,,0.0,-0.11,0.26,0.83,0.49,0.07,0.61,-0.25,-3.71,2.5,8.42,0.0,0.0,0.0,-4.18,3.14,8.29
1738244477.7557967,27588,0,0,,0.0,-0.11,0.26,0.82,0.49,0.05,0.84,-0.31,-3.83,2.96,8.56,0.0,0.0,0.0,-4.33,3.12,8.22
1738244477.7708027,27589,0,0,,0.0,-0.12,0.27,0.82,0.49,0.07,1.0,-0.28,-3.82,2.78,8.44,0.0,0.0,0.0,-4.5,3.11,8.13
1738244477.7879388,27590,0,0,,0.0,-0.13,0.27,0.82,0.49,0.08,1.11,-0.29,-3.98,2.84,8.39,0.0,0.0,0.0,-4.59,3.11,8.08
1738244477.8054693,27591,0,0,,0.0,-0.14,0.27,0.82,0.49,0.11,1.24,-0.29,-4.78,2.85,7.92,0.0,0.0,0.0,-4.79,3.09,7.97
1738244477.8209698,27592,0,0,,0.0,-0.15,0.28,0.81,0.49,0.1,1.32,-0.32,-5.25,2.72,7.74,0.0,0.0,0.0,-5.01,3.08,7.84
1738244477.8380985,27593,0,0,,0.0,-0.16,0.29,0.81,0.49,0.11,1.4,-0.36,-5.69,2.67,7.77,0.0,0.0,0.0,-5.13,3.07,7.76
1738244477.8557558,27594,0,0,,0.0,-0.16,0.29,0.81,0.49,0.11,1.45,-0.4,-4.94,2.85,7.74,0.0,0.0,0.0,-5.37,3.04,7.61
1738244477.8710268,27595,0,0,,0.0,-0.18,0.3,0.8,0.49,0.11,1.52,-0.45,-5.94,2.64,7.51,0.0,0.0,0.0,-5.61,3.01,7.44
1738244477.888503,27596,0,0,,0.0,-0.19,0.31,0.8,0.49,0.11,1.54,-0.49,-5.55,2.62,7.76,0.0,0.0,0.0,-5.74,2.99,7.36
1738244477.9061377,27597,0,0,,0.0,-0.2,0.31,0.79,0.48,0.1,1.61,-0.55,-6.15,2.85,7.31,0.0,0.0,0.0,-5.99,2.95,7.17
1738244477.9216151,27598,0,0,,0.0,-0.21,0.32,0.79,0.48,0.06,1.67,-0.64,-6.48,2.94,6.78,0.0,0.0,0.0,-6.25,2.88,6.97
1738244477.9391086,27599,0,0,,0.0,-0.23,0.32,0.78,0.48,0.03,1.74,-0.7,-7.28,2.31,7.13,0.0,0.0,0.0,-6.39,2.84,6.86
1738244477.9567926,27600,0,0,,0.0,-0.23,0.33,0.78,0.49,0.06,1.84,-0.82,-6.79,3.06,6.95,0.0,0.0,0.0,-6.67,2.75,6.63
1738244477.972037,27601,0,0,,0.0,-0.25,0.33,0.77,0.49,-0.03,2.15,-1.06,-7.65,2.93,7.63,0.0,0.0,0.0,-6.98,2.62,6.36
1738244477.9888968,27602,0,0,,0.0,-0.27,0.34,0.76,0.49,-0.01,2.2,-1.12,-6.68,3.5,7.18,0.0,0.0,0.0,-7.14,2.55,6.21
1738244478.0064356,27603,0,0,,0.0,-0.28,0.35,0.75,0.49,0.06,2.43,-1.3,-7.34,3.21,7.53,0.0,0.0,0.0,-7.48,2.37,5.87
1738244478.0210938,27604,0,0,,0.0,-0.31,0.36,0.73,0.49,0.1,2.6,-1.43,-8.52,2.8,8.13,0.0,0.0,0.0,-7.84,2.16,5.47
1738244478.0389035,27605,0,0,,0.0,-0.34,0.36,0.72,0.49,-0.03,3.03,-1.77,-8.17,3.71,7.86,0.0,0.0,0.0,-8.03,2.02,5.23
1738244478.0566278,27606,0,0,,0.0,-0.35,0.37,0.71,0.49,-0.1,3.39,-2.09,-8.48,3.92,8.01,0.0,0.0,0.0,-8.42,1.69,4.71
1738244478.072024,27607,0,0,,0.0,-0.39,0.38,0.68,0.49,-0.52,3.67,-2.32,-8.02,3.13,6.98,0.0,0.0,0.0,-8.8,1.28,4.12
1738244478.0890498,27608,0,0,,0.0,-0.42,0.38,0.66,0.49,-0.68,3.75,-2.38,-8.14,3.27,6.15,0.0,0.0,0.0,-8.97,1.05,3.8
1738244478.106842,27609,0,0,,0.0,-0.44,0.38,0.65,0.49,-0.94,3.83,-2.41,-7.55,-0.46,4.84,0.0,0.0,0.0,-9.27,0.56,3.14
1738244478.1221406,27610,0,0,,0.0,-0.48,0.38,0.62,0.49,-0.77,3.97,-2.39,-7.8,-0.77,3.28,0.0,0.0,0.0,-9.49,0.08,2.43
1738244478.140038,27611,0,0,,0.0,-0.51,0.39,0.59,0.48,-0.65,4.06,-2.38,-9.12,-0.29,2.34,0.0,0.0,0.0,-9.58,-0.14,2.06
1738244478.156726,27612,0,0,,0.0,-0.53,0.39,0.58,0.48,-0.63,4.22,-2.22,-11.42,-0.89,1.48,0.0,0.0,0.0,-9.7,-0.59,1.27
1738244478.1722898,27613,0,0,,0.0,-0.56,0.4,0.55,0.47,-0.27,4.1,-1.81,-14.23,0.2,3.13,0.0,0.0,0.0,-9.74,-0.96,0.48
1738244478.1898441,27614,0,0,,0.0,-0.59,0.4,0.52,0.47,-0.1,3.8,-1.65,-14.21,0.65,3.4,0.0,0.0,0.0,-9.74,-1.11,0.12
1738244478.2071795,27615,0,0,,0.0,-0.6,0.41,0.51,0.46,0.0,2.79,-1.41,-12.63,0.51,3.49,0.0,0.0,0.0,-9.69,-1.39,-0.45
1738244478.2218416,27616,0,0,,0.0,-0.61,0.41,0.49,0.46,0.17,1.54,-1.17,-10.08,2.56,3.82,0.0,0.0,0.0,-9.63,-1.62,-0.79
1738244478.23979,27617,0,0,,0.0,-0.62,0.41,0.49,0.47,0.18,0.93,-0.9,-9.09,2.6,3.19,0.0,0.0,0.0,-9.61,-1.71,-0.87
1738244478.2570798,27618,0,0,,0.0,-0.62,0.41,0.49,0.47,0.4,-0.04,0.01,-9.69,3.33,5.13,0.0,0.0,0.0,-9.6,-1.76,-0.9
1738244478.272678,27619,0,0,,0.0,-0.6,0.41,0.49,0.47,0.91,-1.49,1.48,-8.38,4.44,4.49,0.0,0.0,0.0,-9.65,-1.56,-0.67
1738244478.2900872,27620,0,0,,0.0,-0.58,0.42,0.52,0.47,0.56,-2.08,1.93,-8.45,3.04,4.63,0.0,0.0,0.0,-9.69,-1.39,-0.46
1738244478.3073347,27621,0,0,,0.0,-0.57,0.42,0.53,0.47,0.07,-3.22,2.28,-6.64,-3.86,2.63,0.0,0.0,0.0,-9.75,-0.97,0.08
1738244478.3222408,27622,0,0,,0.0,-0.54,0.41,0.56,0.48,0.47,-3.86,1.66,-7.07,-2.88,3.28,0.0,0.0,0.0,-9.75,-0.61,0.8
1738244478.3400733,27623,0,0,,0.0,-0.51,0.4,0.58,0.5,0.73,-4.06,1.18,-7.01,-0.58,3.16,0.0,0.0,0.0,-9.72,-0.49,1.18
1738244478.3569872,27624,0,0,,0.0,-0.49,0.39,0.59,0.5,0.5,-4.62,0.73,-5.14,0.22,2.53,0.0,0.0,0.0,-9.58,-0.32,2.03
1738244478.3722138,27625,0,0,,0.0,-0.46,0.37,0.62,0.52,0.35,-4.67,0.63,-4.6,1.08,2.53,0.0,0.0,0.0,-9.37,-0.18,2.88
1738244478.3899674,27626,0,0,,0.0,-0.43,0.36,0.64,0.53,0.57,-4.51,0.78,-4.57,1.93,2.69,0.0,0.0,0.0,-9.23,-0.09,3.29
1738244478.4078274,27627,0,0,,0.0,-0.41,0.35,0.65,0.54,0.63,-4.26,1.16,-5.96,1.63,3.78,0.0,0.0,0.0,-8.92,0.13,4.05
1738244478.4222224,27628,0,0,,0.0,-0.38,0.34,0.67,0.54,0.67,-4.16,1.34,-6.32,2.07,3.87,0.0,0.0,0.0,-8.56,0.42,4.74
1738244478.4404912,27629,0,0,,0.0,-0.34,0.33,0.69,0.55,0.61,-3.96,1.57,-6.75,2.02,4.15,0.0,0.0,0.0,-8.37,0.58,5.07
1738244478.45765,27630,0,0,,0.0,-0.33,0.32,0.7,0.55,0.62,-3.69,1.94,-7.88,1.81,5.05,0.0,0.0,0.0,-7.95,0.93,5.65
1738244478.4723556,27631,0,0,,0.0,-0.29,0.32,0.72,0.55,0.61,-3.55,2.11,-8.77,0.82,5.87,0.0,0.0,0.0,-7.51,1.33,6.16
1738244478.490053,27632,0,0,,0.0,-0.26,0.31,0.74,0.54,0.73,-3.28,2.25,-9.74,0.49,6.61,0.0,0.0,0.0,-7.28,1.53,6.38
1738244478.5079408,27633,0,0,,0.0,-0.24,0.31,0.74,0.54,0.8,-3.12,2.17,-10.36,0.16,7.39,0.0,0.0,0.0,-6.8,1.94,6.79
1738244478.5224652,27634,0,0,,0.0,-0.21,0.3,0.76,0.54,0.81,-3.06,2.09,-11.02,0.71,8.19,0.0,0.0,0.0,-6.31,2.3,7.14
1738244478.541105,27635,0,0,,0.0,-0.18,0.3,0.77,0.53,0.73,-2.98,1.89,-11.12,1.12,8.15,0.0,0.0,0.0,-6.05,2.47,7.3
1738244478.557788,27636,0,0,,0.0,-0.16,0.29,0.78,0.53,0.61,-2.86,1.75,-11.0,1.43,7.74,0.0,0.0,0.0,-5.54,2.76,7.59
1738244478.5732043,27637,0,0,,0.0,-0.14,0.29,0.79,0.53,0.56,-2.75,1.68,-10.45,2.08,7.12,0.0,0.0,0.0,-5.05,3.01,7.84
1738244478.5904913,27638,0,0,,0.0,-0.11,0.28,0.8,0.52,0.46,-2.41,1.57,-10.36,2.14,7.12,0.0,0.0,0.0,-4.82,3.12,7.94
1738244478.6078615,27639,0,0,,0.0,-0.1,0.28,0.8,0.52,0.48,-2.01,1.58,-9.61,1.85,7.05,0.0,0.0,0.0,-4.4,3.33,8.1
1738244478.6226838,27640,0,0,,0.0,-0.08,0.27,0.81,0.51,0.46,-1.82,1.58,-9.13,0.27,7.08,0.0,0.0,0.0,-4.02,3.53,8.21
1738244478.6401832,27641,0,0,,0.0,-0.07,0.27,0.82,0.5,0.42,-1.38,1.41,-8.79,0.0,7.19,0.0,0.0,0.0,-3.86,3.62,8.25
1738244478.6576111,27642,0,0,,0.0,-0.06,0.27,0.82,0.5,0.24,-0.96,1.01,-8.84,0.48,7.17,0.0,0.0,0.0,-3.61,3.74,8.3
1738244478.6728368,27643,0,0,,0.0,-0.05,0.27,0.82,0.5,0.11,-0.79,0.83,-7.34,0.31,4.95,0.0,0.0,0.0,-3.45,3.8,8.35
1738244478.6899643,27644,0,0,,0.0,-0.05,0.26,0.83,0.49,-0.27,-0.32,0.44,-6.9,0.1,4.12,0.0,0.0,0.0,-3.41,3.79,8.37
1738244478.707897,27645,0,0,,0.0,-0.06,0.26,0.83,0.49,-0.48,0.46,-0.01,-6.74,-0.04,3.77,0.0,0.0,0.0,-3.44,3.73,8.38
1738244478.7222223,27646,0,0,,0.0,-0.07,0.26,0.83,0.49,-0.43,0.89,-0.18,-8.82,0.65,5.71,0.0,0.0,0.0,-3.63,3.65,8.34
1738244478.7401383,27647,0,0,,0.0,-0.08,0.27,0.82,0.49,-0.2,1.4,-0.31,-9.15,1.02,6.7,0.0,0.0,0.0,-3.75,3.62,8.3
1738244478.7572649,27648,0,0,,0.0,-0.09,0.27,0.82,0.49,-0.06,1.32,-0.23,-11.14,4.12,12.96,0.0,0.0,0.0,-3.99,3.59,8.2
1738244478.7731853,27649,0,0,,0.0,-0.09,0.27,0.82,0.49,-0.46,0.92,-0.31,-5.3,0.43,8.74,0.0,0.0,0.0,-4.1,3.49,8.19
1738244478.7900326,27650,0,0,,0.0,-0.09,0.27,0.82,0.49,-0.2,-0.07,-0.0,-3.22,1.13,7.04,0.0,0.0,0.0,-4.09,3.47,8.2
1738244478.8074367,27651,0,0,,0.0,-0.09,0.27,0.82,0.49,0.02,-0.07,-0.03,-3.17,7.55,12.14,0.0,0.0,0.0,-4.09,3.46,8.2
1738244478.8225935,27652,0,0,,0.0,-0.09,0.27,0.82,0.49,-0.13,-0.29,0.07,-0.84,5.44,8.04,0.0,0.0,0.0,-4.04,3.44,8.24
1738244478.8398697,27653,0,0,,0.0,-0.09,0.27,0.82,0.49,-0.27,-0.05,-0.04,-4.27,3.86,8.85,0.0,0.0,0.0,-4.04,3.42,8.25
1738244478.857435,27654,0,0,,0.0,-0.09,0.26,0.82,0.49,-0.35,0.04,-0.21,-5.82,2.92,8.02,0.0,0.0,0.0,-4.06,3.35,8.27
1738244478.872839,27655,0,0,,0.0,-0.1,0.26,0.83,0.49,-0.39,-0.05,-0.19,-5.13,2.36,8.48,0.0,0.0,0.0,-4.05,3.28,8.3
1738244478.8901026,27656,0,0,,0.0,-0.1,0.26,0.83,0.49,-0.29,-0.22,-0.06,-4.06,2.63,8.6,0.0,0.0,0.0,-4.03,3.25,8.32
1738244478.9070084,27657,0,0,,0.0,-0.09,0.26,0.83,0.49,-0.16,-0.15,-0.01,-3.94,2.85,8.42,0.0,0.0,0.0,-4.01,3.22,8.34
1738244478.9225917,27658,0,0,,0.0,-0.09,0.26,0.83,0.49,-0.11,-0.07,-0.01,-4.17,2.46,8.62,0.0,0.0,0.0,-4.0,3.21,8.35
1738244478.9400177,27659,0,0,,0.0,-0.09,0.26,0.83,0.49,0.02,0.0,0.03,-3.98,2.02,8.31,0.0,0.0,0.0,-4.0,3.21,8.35
1738244478.9575431,27660,0,0,,0.0,-0.09,0.26,0.83,0.49,0.16,0.06,0.07,-4.06,2.8,8.51,0.0,0.0,0.0,-4.01,3.24,8.34
1738244478.9721978,27661,0,0,,0.0,-0.09,0.26,0.82,0.5,0.23,0.05,0.1,-3.69,2.69,8.41,0.0,0.0,0.0,-4.01,3.28,8.32
1738244478.988852,27662,0,0,,0.0,-0.09,0.26,0.82,0.49,0.29,0.1,0.08,-4.03,3.64,8.45,0.0,0.0,0.0,-4.01,3.31,8.3
1738244479.007081,27663,0,0,,0.0,-0.09,0.26,0.82,0.49,0.27,0.08,0.07,-4.6,3.64,8.1,0.0,0.0,0.0,-4.02,3.36,8.28
1738244479.0215096,27664,0,0,,0.0,-0.09,0.26,0.82,0.5,0.18,0.05,0.01,-3.97,3.67,8.47,0.0,0.0,0.0,-4.03,3.37,8.27
1738244479.0393639,27665,0,0,,0.0,-0.09,0.27,0.82,0.5,0.14,0.03,-0.02,-4.65,3.02,8.24,0.0,0.0,0.0,-4.03,3.39,8.26
1738244479.0572805,27666,0,0,,0.0,-0.09,0.27,0.82,0.5,0.11,0.01,-0.02,-4.15,3.02,8.24,0.0,0.0,0.0,-4.03,3.41,8.25
1738244479.0725214,27667,0,0,,0.0,-0.09,0.27,0.82,0.5,0.1,-0.0,-0.01,-4.15,2.82,8.26,0.0,0.0,0.0,-4.03,3.42,8.25
1738244479.0894003,27668,0,0,,0.0,-0.09,0.27,0.82,0.5,0.1,-0.0,0.01,-3.5,3.06,8.32,0.0,0.0,0.0,-4.03,3.43,8.24
1738244479.1075315,27669,0,0,,0.0,-0.09,0.27,0.82,0.5,0.12,0.03,0.01,-3.96,3.42,8.54,0.0,0.0,0.0,-4.04,3.45,8.23
1738244479.122485,27670,0,0,,0.0,-0.09,0.27,0.82,0.5,0.14,0.02,0.02,-4.46,3.02,7.91,0.0,0.0,0.0,-4.04,3.47,8.22
1738244479.140254,27671,0,0,,0.0,-0.09,0.27,0.82,0.5,0.11,0.01,0.02,-3.97,3.21,8.25,0.0,0.0,0.0,-4.04,3.48,8.22
1738244479.1571867,27672,0,0,,0.0,-0.09,0.27,0.82,0.5,0.06,0.01,0.01,-4.46,3.4,8.09,0.0,0.0,0.0,-4.04,3.5,8.21
1738244479.1727865,27673,0,0,,0.0,-0.09,0.27,0.82,0.5,0.03,0.01,0.01,-4.0,3.26,8.28,0.0,0.0,0.0,-4.04,3.5,8.21
1738244479.1904762,27674,0,0,,0.0,-0.09,0.27,0.82,0.5,0.01,0.01,0.01,-4.5,2.91,8.1,0.0,0.0,0.0,-4.04,3.5,8.21
1738244479.2077358,27675,0,0,,0.0,-0.09,0.27,0.82,0.5,0.01,-0.01,0.01,-4.27,3.19,8.09,0.0,0.0,0.0,-4.04,3.5,8.21
1738244479.2237148,27676,0,0,,0.0,-0.09,0.27,0.82,0.5,0.01,0.01,0.0,-4.06,3.4,8.48,0.0,0.0,0.0,-4.04,3.5,8.21
1738244479.241718,27677,0,0,,0.0,-0.09,0.27,0.82,0.5,0.03,-0.0,0.02,-3.95,2.88,8.32,0.0,0.0,0.0,-4.04,3.51,8.21
1738244479.25822,27678,0,0,,0.0,-0.09,0.27,0.82,0.5,0.05,0.01,0.03,-4.24,3.86,8.41,0.0,0.0,0.0,-4.04,3.52,8.21
1738244479.2736683,27679,0,0,,0.0,-0.09,0.27,0.82,0.5,0.06,0.01,0.03,-3.76,3.28,8.26,0.0,0.0,0.0,-4.04,3.53,8.2
1738244479.2909443,27680,0,0,,0.0,-0.09,0.27,0.82,0.5,0.03,0.01,0.01,-3.66,3.21,8.42,0.0,0.0,0.0,-4.04,3.53,8.2
1738244479.3079987,27681,0,0,,0.0,-0.09,0.27,0.82,0.5,0.01,0.02,-0.0,-4.75,3.1,8.17,0.0,0.0,0.0,-4.04,3.53,8.2
1738244479.3238504,27682,0,0,,0.0,-0.09,0.27,0.82,0.5,-0.0,0.01,-0.01,-4.34,3.39,8.16,0.0,0.0,0.0,-4.04,3.53,8.2
1738244479.3426669,27683,0,0,,0.0,-0.09,0.27,0.82,0.5,0.01,0.01,-0.0,-4.22,3.06,8.15,0.0,0.0,0.0,-4.04,3.53,8.2
1738244479.3590932,27684,0,0,,0.0,-0.09,0.27,0.82,0.5,0.03,-0.0,0.01,-3.72,3.3,8.22,0.0,0.0,0.0,-4.04,3.54,8.2
1738244479.3747902,27685,0,0,,0.0,-0.09,0.27,0.82,0.5,0.03,-0.01,0.01,-3.73,3.53,8.44,0.0,0.0,0.0,-4.04,3.54,8.19
1738244479.3917785,27686,0,0,,0.0,-0.09,0.27,0.82,0.5,0.06,-0.02,0.01,-4.16,2.95,8.08,0.0,0.0,0.0,-4.04,3.55,8.19
1738244479.4089525,27687,0,0,,0.0,-0.09,0.27,0.82,0.5,0.08,-0.0,0.02,-4.15,3.69,8.25,0.0,0.0,0.0,-4.04,3.56,8.19
1738244479.4237924,27688,0,0,,0.0,-0.08,0.27,0.82,0.5,0.1,-0.01,0.03,-3.81,3.12,8.17,0.0,0.0,0.0,-4.03,3.58,8.18
1738244479.4406931,27689,0,0,,0.0,-0.08,0.28,0.82,0.5,0.09,0.0,0.03,-4.13,3.1,8.07,0.0,0.0,0.0,-4.03,3.59,8.18
1738244479.4583352,27690,0,0,,0.0,-0.08,0.28,0.82,0.5,0.08,-0.01,0.03,-5.11,3.43,7.9,0.0,0.0,0.0,-4.03,3.6,8.17
1738244479.473505,27691,0,0,,0.0,-0.08,0.28,0.82,0.5,0.07,0.01,0.01,-3.58,3.3,8.31,0.0,0.0,0.0,-4.03,3.61,8.17
1738244479.4909225,27692,0,0,,0.0,-0.08,0.28,0.82,0.5,0.04,0.0,0.01,-4.77,3.23,8.08,0.0,0.0,0.0,-4.03,3.62,8.17
1738244479.5083086,27693,0,0,,0.0,-0.08,0.28,0.82,0.5,0.03,0.0,0.0,-4.42,3.32,8.21,0.0,0.0,0.0,-4.03,3.62,8.16
1738244479.5237083,27694,0,0,,0.0,-0.08,0.28,0.82,0.5,0.03,0.02,0.0,-3.97,3.51,8.22,0.0,0.0,0.0,-4.03,3.63,8.16
1738244479.5412734,27695,0,0,,0.0,-0.08,0.28,0.82,0.5,0.03,0.01,0.01,-3.9,3.35,8.3,0.0,0.0,0.0,-4.03,3.63,8.16
1738244479.558343,27696,0,0,,0.0,-0.08,0.28,0.82,0.5,0.03,0.03,0.0,-4.88,2.92,8.05,0.0,0.0,0.0,-4.04,3.63,8.15
1738244479.5738823,27697,0,0,,0.0,-0.08,0.28,0.82,0.5,0.03,0.01,0.01,-4.32,3.18,8.19,0.0,0.0,0.0,-4.04,3.64,8.15
1738244479.5909536,27698,0,0,,0.0,-0.08,0.28,0.82,0.5,0.03,0.03,0.0,-4.39,2.94,8.19,0.0,0.0,0.0,-4.04,3.64,8.15
1738244479.608824,27699,0,0,,0.0,-0.08,0.28,0.82,0.5,0.02,0.01,0.01,-4.17,3.75,8.21,0.0,0.0,0.0,-4.04,3.64,8.15
1738244479.6243777,27700,0,0,,0.0,-0.08,0.28,0.82,0.5,0.02,0.01,0.0,-4.27,3.08,8.12,0.0,0.0,0.0,-4.04,3.65,8.15
1738244479.643357,27701,0,0,,0.0,-0.08,0.28,0.82,0.5,0.0,0.0,-0.01,-3.67,3.43,8.25,0.0,0.0,0.0,-4.04,3.65,8.15
1738244479.6595302,27702,0,0,,0.0,-0.08,0.28,0.82,0.5,-0.02,0.0,-0.02,-3.95,3.59,8.31,0.0,0.0,0.0,-4.05,3.64,8.15
1738244479.6756146,27703,0,0,,0.0,-0.08,0.28,0.82,0.5,-0.02,-0.0,-0.02,-3.83,3.33,8.2,0.0,0.0,0.0,-4.05,3.64,8.15
1738244479.6936464,27704,0,0,,0.0,-0.08,0.28,0.82,0.5,-0.03,-0.0,-0.03,-4.26,3.31,8.27,0.0,0.0,0.0,-4.05,3.63,8.15
1738244479.7094798,27705,0,0,,0.0,-0.08,0.28,0.82,0.5,-0.02,0.01,-0.03,-4.48,3.23,8.26,0.0,0.0,0.0,-4.05,3.62,8.15
1738244479.7244039,27706,0,0,,0.0,-0.08,0.28,0.82,0.5,-0.02,0.02,-0.04,-4.18,3.32,8.32,0.0,0.0,0.0,-4.06,3.61,8.15
1738244479.7419953,27707,0,0,,0.0,-0.09,0.28,0.82,0.5,-0.02,0.01,-0.04,-5.17,2.94,8.01,0.0,0.0,0.0,-4.06,3.61,8.15
1738244479.7590203,27708,0,0,,0.0,-0.09,0.28,0.82,0.5,-0.08,0.02,-0.06,-4.41,3.55,7.93,0.0,0.0,0.0,-4.07,3.59,8.16
1738244479.7738824,27709,0,0,,0.0,-0.09,0.28,0.82,0.5,-0.1,0.03,-0.09,-4.66,2.99,8.23,0.0,0.0,0.0,-4.08,3.58,8.16
1738244479.790429,27710,0,0,,0.0,-0.09,0.28,0.82,0.5,-0.11,0.04,-0.09,-4.23,3.03,8.37,0.0,0.0,0.0,-4.09,3.56,8.16
1738244479.8090215,27711,0,0,,0.0,-0.09,0.27,0.82,0.5,-0.1,0.06,-0.1,-3.92,3.54,8.32,0.0,0.0,0.0,-4.11,3.53,8.16
1738244479.8240678,27712,0,0,,0.0,-0.09,0.27,0.82,0.5,-0.1,0.11,-0.11,-3.78,3.38,8.43,0.0,0.0,0.0,-4.12,3.52,8.16
1738244479.841103,27713,0,0,,0.0,-0.09,0.27,0.82,0.5,-0.09,0.2,-0.14,-3.5,3.4,8.4,0.0,0.0,0.0,-4.16,3.49,8.16
1738244479.8586278,27714,0,0,,0.0,-0.09,0.28,0.82,0.5,-0.08,0.22,-0.13,-4.63,3.17,8.1,0.0,0.0,0.0,-4.21,3.47,8.14
1738244479.8737116,27715,0,0,,0.0,-0.1,0.28,0.81,0.5,-0.07,0.35,-0.18,-4.43,3.16,8.43,0.0,0.0,0.0,-4.24,3.46,8.13
1738244479.8900313,27716,0,0,,0.0,-0.1,0.28,0.81,0.5,-0.04,0.48,-0.2,-3.78,3.33,8.48,0.0,0.0,0.0,-4.32,3.43,8.1
1738244479.9085164,27717,0,0,,0.0,-0.11,0.28,0.81,0.5,-0.03,0.56,-0.22,-3.9,3.11,8.67,0.0,0.0,0.0,-4.44,3.41,8.04
1738244479.9237938,27718,0,0,,0.0,-0.11,0.28,0.81,0.5,0.01,0.76,-0.29,-5.39,2.46,8.14,0.0,0.0,0.0,-4.5,3.4,8.01
1738244479.9401746,27719,0,0,,0.0,-0.12,0.29,0.81,0.5,0.06,0.94,-0.31,-4.03,2.66,8.6,0.0,0.0,0.0,-4.66,3.38,7.93
1738244479.958623,27720,0,0,,0.0,-0.13,0.29,0.81,0.5,0.09,1.04,-0.31,-4.27,3.08,8.1,0.0,0.0,0.0,-4.85,3.36,7.82
1738244479.97334,27721,0,0,,0.0,-0.14,0.3,0.8,0.5,0.14,1.2,-0.32,-4.89,2.67,8.24,0.0,0.0,0.0,-4.95,3.36,7.76
1738244479.9895103,27722,0,0,,0.0,-0.14,0.3,0.8,0.5,0.16,1.34,-0.33,-5.05,3.26,7.84,0.0,0.0,0.0,-5.17,3.35,7.62
1738244480.0086527,27723,0,0,,0.0,-0.15,0.31,0.8,0.5,0.16,1.39,-0.35,-5.33,3.39,7.84,0.0,0.0,0.0,-5.4,3.33,7.47
1738244480.0244899,27724,0,0,,0.0,-0.16,0.32,0.79,0.5,0.15,1.46,-0.4,-6.4,2.95,7.45,0.0,0.0,0.0,-5.51,3.32,7.39
1738244480.0400558,27725,0,0,,0.0,-0.17,0.32,0.79,0.5,0.13,1.49,-0.43,-6.22,3.18,7.02,0.0,0.0,0.0,-5.75,3.3,7.22
1738244480.0585902,27726,0,0,,0.0,-0.18,0.33,0.78,0.5,0.13,1.54,-0.45,-5.71,3.37,7.4,0.0,0.0,0.0,-5.99,3.26,7.03
1738244480.0742238,27727,0,0,,0.0,-0.2,0.34,0.78,0.49,0.12,1.58,-0.47,-5.96,3.33,7.09,0.0,0.0,0.0,-6.12,3.24,6.93
1738244480.0897596,27728,0,0,,0.0,-0.2,0.34,0.77,0.49,0.08,1.66,-0.57,-6.45,3.42,7.35,0.0,0.0,0.0,-6.37,3.19,6.73
1738244480.1091704,27729,0,0,,0.0,-0.22,0.35,0.77,0.49,0.07,1.69,-0.62,-6.45,2.96,7.39,0.0,0.0,0.0,-6.63,3.12,6.51
1738244480.1237473,27730,0,0,,0.0,-0.23,0.35,0.76,0.49,0.05,1.89,-0.82,-6.7,3.32,7.4,0.0,0.0,0.0,-6.77,3.07,6.39
1738244480.1401582,27731,0,0,,0.0,-0.24,0.36,0.75,0.49,0.01,2.01,-1.04,-7.44,3.21,6.48,0.0,0.0,0.0,-7.07,2.94,6.12
1738244480.1588566,27732,0,0,,0.0,-0.26,0.37,0.74,0.49,0.01,2.08,-1.13,-7.13,3.21,6.84,0.0,0.0,0.0,-7.38,2.77,5.82
1738244480.1738038,27733,0,0,,0.0,-0.27,0.37,0.74,0.49,0.13,2.32,-1.33,-7.58,3.03,7.19,0.0,0.0,0.0,-7.54,2.69,5.65
1738244480.1887374,27734,0,0,,0.0,-0.3,0.38,0.72,0.5,0.2,2.65,-1.54,-7.55,3.77,7.45,0.0,0.0,0.0,-7.89,2.48,5.25
1738244480.2093794,27735,0,0,,0.0,-0.32,0.39,0.7,0.5,0.24,2.82,-1.66,-7.86,3.36,7.22,0.0,0.0,0.0,-8.25,2.23,4.79
1738244480.2243357,27736,0,0,,0.0,-0.34,0.39,0.69,0.5,0.16,3.25,-1.95,-8.61,4.79,7.71,0.0,0.0,0.0,-8.44,2.08,4.52
1738244480.240065,27737,0,0,,0.0,-0.37,0.4,0.67,0.5,-0.16,3.67,-2.25,-9.0,4.36,7.69,0.0,0.0,0.0,-8.81,1.71,3.93
1738244480.259259,27738,0,0,,0.0,-0.41,0.41,0.65,0.5,-0.28,3.82,-2.36,-8.81,3.78,7.25,0.0,0.0,0.0,-9.15,1.26,3.26
1738244480.274018,27739,0,0,,0.0,-0.42,0.41,0.63,0.5,-0.69,4.06,-2.67,-7.55,2.54,5.25,0.0,0.0,0.0,-9.31,1.0,2.9
1738244480.2896185,27740,0,0,,0.0,-0.47,0.41,0.61,0.49,-1.12,4.32,-3.07,-7.51,2.13,3.12,0.0,0.0,0.0,-9.55,0.41,2.14
1738244480.3088205,27741,0,0,,0.0,-0.51,0.41,0.57,0.49,-1.32,4.52,-3.2,-10.15,-0.84,1.25,0.0,0.0,0.0,-9.71,-0.22,1.28
1738244480.3244944,27742,0,0,,0.0,-0.53,0.41,0.56,0.48,-1.15,4.8,-2.96,-14.95,0.33,4.64,0.0,0.0,0.0,-9.75,-0.51,0.82
1738244480.340529,27743,0,0,,0.0,-0.57,0.42,0.53,0.47,-0.36,3.7,-1.98,-16.14,3.14,6.5,0.0,0.0,0.0,-9.76,-0.95,0.05
1738244480.3589885,27744,0,0,,0.0,-0.59,0.42,0.51,0.47,-0.17,2.83,-1.42,-15.11,3.42,6.8,0.0,0.0,0.0,-9.72,-1.17,-0.39
1738244480.374216,27745,0,0,,0.0,-0.59,0.42,0.51,0.47,-0.44,0.93,-0.52,-12.63,2.82,6.24,0.0,0.0,0.0,-9.71,-1.22,-0.48
1738244480.39022,27746,0,0,,0.0,-0.59,0.42,0.51,0.47,-0.35,-0.75,0.09,-8.04,-0.03,1.87,0.0,0.0,0.0,-9.72,-1.22,-0.43
1738244480.4091494,27747,0,0,,0.0,-0.58,0.41,0.52,0.47,-0.06,-1.31,0.27,-6.65,-0.57,0.92,0.0,0.0,0.0,-9.73,-1.16,-0.15
1738244480.4247565,27748,0,0,,0.0,-0.57,0.41,0.52,0.48,0.54,-1.83,0.48,-5.86,1.23,1.53,0.0,0.0,0.0,-9.74,-1.11,0.02
1738244480.4410117,27749,0,0,,0.0,-0.56,0.41,0.54,0.48,0.68,-2.31,0.84,-5.53,1.5,1.69,0.0,0.0,0.0,-9.74,-0.97,0.45
1738244480.459549,27750,0,0,,0.0,-0.54,0.4,0.56,0.49,0.56,-2.61,1.05,-4.91,0.85,1.29,0.0,0.0,0.0,-9.72,-0.75,0.97
1738244480.4746895,27751,0,0,,0.0,-0.53,0.4,0.56,0.49,0.3,-2.88,1.19,-4.42,-0.6,1.63,0.0,0.0,0.0,-9.7,-0.64,1.24
1738244480.4898558,27752,0,0,,0.0,-0.5,0.39,0.58,0.5,0.24,-3.02,1.24,-4.38,0.23,2.04,0.0,0.0,0.0,-9.63,-0.4,1.8
1738244480.5095048,27753,0,0,,0.0,-0.48,0.39,0.6,0.51,0.16,-3.09,1.26,-4.07,-0.03,2.65,0.0,0.0,0.0,-9.51,-0.17,2.37
1738244480.5242875,27754,0,0,,0.0,-0.47,0.38,0.61,0.51,0.1,-3.11,1.24,-5.18,0.35,3.98,0.0,0.0,0.0,-9.43,-0.05,2.66
1738244480.5405223,27755,0,0,,0.0,-0.44,0.37,0.63,0.51,0.25,-3.37,1.32,-5.52,0.73,4.35,0.0,0.0,0.0,-9.24,0.19,3.25
1738244480.5592752,27756,0,0,,0.0,-0.41,0.36,0.66,0.52,0.29,-3.51,1.34,-5.66,0.76,4.27,0.0,0.0,0.0,-8.99,0.45,3.88
1738244480.5749662,27757,0,0,,0.0,-0.4,0.36,0.66,0.52,0.47,-3.68,1.35,-6.9,2.13,4.27,0.0,0.0,0.0,-8.84,0.58,4.19
1738244480.5897067,27758,0,0,,0.0,-0.37,0.35,0.68,0.53,0.53,-3.74,1.52,-7.57,2.45,4.13,0.0,0.0,0.0,-8.49,0.88,4.81
1738244480.609156,27759,0,0,,0.0,-0.33,0.34,0.7,0.53,0.57,-3.71,1.67,-7.66,2.3,3.98,0.0,0.0,0.0,-8.09,1.22,5.39
1738244480.624252,27760,0,0,,0.0,-0.32,0.33,0.71,0.53,0.68,-3.48,2.0,-9.31,1.63,4.97,0.0,0.0,0.0,-7.88,1.41,5.65
1738244480.6398659,27761,0,0,,0.0,-0.28,0.33,0.73,0.53,0.79,-3.26,2.2,-10.0,0.54,5.72,0.0,0.0,0.0,-7.43,1.82,6.12
1738244480.6598592,27762,0,0,,0.0,-0.25,0.32,0.75,0.52,0.81,-3.19,2.19,-10.34,-0.06,6.93,0.0,0.0,0.0,-6.96,2.22,6.53
1738244480.6752644,27763,0,0,,0.0,-0.23,0.32,0.75,0.52,0.89,-3.09,1.96,-10.68,0.57,7.95,0.0,0.0,0.0,-6.72,2.4,6.71
1738244480.6898615,27764,0,0,,0.0,-0.2,0.32,0.77,0.52,0.78,-3.08,1.71,-10.7,1.36,8.27,0.0,0.0,0.0,-6.22,2.73,7.06
1738244480.7092555,27765,0,0,,0.0,-0.17,0.31,0.78,0.52,0.73,-3.06,1.63,-10.55,1.52,8.05,0.0,0.0,0.0,-5.71,3.02,7.37
1738244480.7242627,27766,0,0,,0.0,-0.15,0.31,0.78,0.52,0.71,-2.89,1.52,-10.39,2.14,7.71,0.0,0.0,0.0,-5.46,3.15,7.5
1738244480.7399905,27767,0,0,,0.0,-0.12,0.3,0.79,0.52,0.7,-2.58,1.48,-10.51,3.12,7.83,0.0,0.0,0.0,-4.97,3.41,7.73
1738244480.7597914,27768,0,0,,0.0,-0.1,0.3,0.8,0.51,0.68,-2.43,1.5,-10.27,2.97,7.46,0.0,0.0,0.0,-4.51,3.64,7.9
1738244480.7740831,27769,0,0,,0.0,-0.09,0.29,0.8,0.51,0.55,-2.07,1.5,-9.38,0.86,6.58,0.0,0.0,0.0,-4.3,3.75,7.97
1738244480.7899895,27770,0,0,,0.0,-0.07,0.29,0.81,0.5,0.49,-1.55,1.31,-9.18,-0.23,6.27,0.0,0.0,0.0,-3.93,3.94,8.07
1738244480.809912,27771,0,0,,0.0,-0.05,0.29,0.82,0.5,0.41,-1.28,1.05,-8.7,-0.82,5.4,0.0,0.0,0.0,-3.79,4.01,8.1
1738244480.8247108,27772,0,0,,0.0,-0.05,0.29,0.82,0.5,0.16,-0.69,0.37,-8.35,-0.67,4.68,0.0,0.0,0.0,-3.61,4.08,8.14
1738244480.8395195,27773,0,0,,0.0,-0.05,0.29,0.82,0.5,0.04,0.03,-0.16,-9.52,0.47,4.93,0.0,0.0,0.0,-3.59,4.09,8.15
1738244480.8600843,27774,0,0,,0.0,-0.05,0.29,0.81,0.5,0.03,0.34,-0.3,-9.93,0.67,4.83,0.0,0.0,0.0,-3.63,4.08,8.13
1738244480.8743105,27775,0,0,,0.0,-0.06,0.29,0.81,0.5,-0.15,0.78,-0.44,-9.99,-0.25,4.54,0.0,0.0,0.0,-3.77,4.04,8.09
1738244480.8894136,27776,0,0,,0.0,-0.07,0.29,0.81,0.5,-0.18,0.97,-0.49,-11.07,3.82,9.36,0.0,0.0,0.0,-3.98,3.96,8.03
1738244480.9096076,27777,0,0,,0.0,-0.08,0.29,0.81,0.5,-1.19,0.97,-0.88,-9.47,2.8,10.84,0.0,0.0,0.0,-4.09,3.83,8.04
1738244480.9239225,27778,0,0,,0.0,-0.08,0.28,0.81,0.5,-0.73,0.0,0.08,-6.52,5.46,13.21,0.0,0.0,0.0,-4.13,3.67,8.09
1738244480.939207,27779,0,0,,0.0,-0.08,0.28,0.82,0.5,-0.65,-0.43,0.25,-0.59,3.89,9.56,0.0,0.0,0.0,-4.0,3.6,8.19
1738244480.9592354,27780,0,0,,0.0,-0.07,0.27,0.82,0.5,-0.13,-1.07,0.56,1.15,5.81,9.16,0.0,0.0,0.0,-3.9,3.61,8.24
1738244480.9746501,27781,0,0,,0.0,-0.07,0.27,0.82,0.5,-0.39,-0.17,-0.14,-3.18,5.27,8.3,0.0,0.0,0.0,-3.82,3.57,8.29
1738244480.9894314,27782,0,0,,0.0,-0.08,0.26,0.82,0.5,-0.71,0.29,-0.4,-6.29,1.18,8.6,0.0,0.0,0.0,-3.89,3.42,8.32
1738244481.0100105,27783,0,0,,0.0,-0.08,0.26,0.82,0.51,-0.6,0.12,-0.27,-5.09,1.74,8.77,0.0,0.0,0.0,-3.91,3.36,8.33
1738244481.0241692,27784,0,0,,0.0,-0.08,0.26,0.82,0.51,-0.08,-0.01,-0.01,-3.93,1.59,8.72,0.0,0.0,0.0,-3.92,3.32,8.35
1738244481.0400178,27785,0,0,,0.0,-0.08,0.26,0.82,0.51,-0.08,-0.01,-0.01,-3.45,3.2,8.68,0.0,0.0,0.0,-3.92,3.32,8.35
1738244481.0601032,27786,0,0,,0.0,-0.08,0.26,0.82,0.5,0.16,0.06,0.06,-3.89,2.92,8.07,0.0,0.0,0.0,-3.92,3.33,8.34
1738244481.0746412,27787,0,0,,0.0,-0.08,0.26,0.82,0.5,0.16,0.14,0.05,-4.01,3.79,8.18,0.0,0.0,0.0,-3.94,3.36,8.32
1738244481.089822,27788,0,0,,0.0,-0.08,0.26,0.82,0.5,0.16,0.11,0.04,-4.18,3.72,8.05,0.0,0.0,0.0,-3.96,3.39,8.3
1738244481.1099792,27789,0,0,,0.0,-0.09,0.26,0.82,0.5,0.02,0.09,-0.05,-4.14,3.59,8.43,0.0,0.0,0.0,-3.97,3.39,8.3
1738244481.1243644,27790,0,0,,0.0,-0.09,0.26,0.82,0.5,-0.09,0.01,-0.13,-4.55,3.01,8.26,0.0,0.0,0.0,-3.98,3.37,8.3
1738244481.1398592,27791,0,0,,0.0,-0.09,0.26,0.82,0.51,-0.09,0.01,-0.13,-4.11,2.77,8.09,0.0,0.0,0.0,-3.98,3.35,8.3
1738244481.160239,27792,0,0,,0.0,-0.09,0.26,0.82,0.51,-0.05,-0.02,-0.13,-4.15,2.56,8.37,0.0,0.0,0.0,-3.99,3.34,8.31
1738244481.1744242,27793,0,0,,0.0,-0.09,0.26,0.82,0.51,-0.01,-0.03,-0.09,-3.88,2.7,8.39,0.0,0.0,0.0,-3.99,3.32,8.31
1738244481.1901605,27794,0,0,,0.0,-0.09,0.26,0.82,0.51,-0.01,-0.03,-0.09,-3.96,2.96,8.64,0.0,0.0,0.0,-3.99,3.32,8.31
1738244481.2104855,27795,0,0,,0.0,-0.09,0.26,0.82,0.51,0.06,-0.03,-0.06,-4.01,2.56,8.29,0.0,0.0,0.0,-3.99,3.31,8.31
1738244481.2248604,27796,0,0,,0.0,-0.09,0.26,0.82,0.51,0.15,-0.03,-0.01,-3.84,2.87,8.62,0.0,0.0,0.0,-3.99,3.33,8.31
1738244481.2405975,27797,0,0,,0.0,-0.09,0.26,0.82,0.51,0.15,-0.03,-0.01,-4.67,3.23,8.16,0.0,0.0,0.0,-3.99,3.35,8.3
1738244481.2603126,27798,0,0,,0.0,-0.08,0.26,0.81,0.51,0.15,-0.01,-0.02,-4.08,3.43,8.28,0.0,0.0,0.0,-3.99,3.36,8.29
1738244481.2746196,27799,0,0,,0.0,-0.08,0.26,0.81,0.51,0.04,-0.02,-0.04,-3.93,3.32,8.2,0.0,0.0,0.0,-3.99,3.37,8.29
1738244481.2907972,27800,0,0,,0.0,-0.08,0.26,0.81,0.51,0.04,-0.02,-0.04,-3.57,3.47,8.23,0.0,0.0,0.0,-3.99,3.37,8.29
1738244481.3100655,27801,0,0,,0.0,-0.08,0.26,0.81,0.51,0.01,-0.03,-0.07,-4.27,3.23,8.15,0.0,0.0,0.0,-3.99,3.36,8.29
1738244481.3250864,27802,0,0,,0.0,-0.08,0.26,0.81,0.51,-0.06,-0.01,-0.09,-4.32,2.97,7.92,0.0,0.0,0.0,-3.99,3.35,8.3
1738244481.3403707,27803,0,0,,0.0,-0.09,0.26,0.81,0.51,-0.06,-0.01,-0.09,-4.42,3.59,8.37,0.0,0.0,0.0,-3.99,3.33,8.3
1738244481.3603427,27804,0,0,,0.0,-0.09,0.26,0.81,0.51,-0.08,-0.03,-0.04,-4.05,2.88,8.44,0.0,0.0,0.0,-3.99,3.32,8.31
1738244481.374898,27805,0,0,,0.0,-0.09,0.26,0.81,0.51,-0.04,-0.02,-0.01,-4.16,2.4,8.56,0.0,0.0,0.0,-3.99,3.31,8.31
1738244481.3906665,27806,0,0,,0.0,-0.09,0.26,0.81,0.51,-0.02,-0.03,0.01,-4.78,2.73,8.39,0.0,0.0,0.0,-3.99,3.31,8.31
1738244481.4106507,27807,0,0,,0.0,-0.09,0.26,0.81,0.51,0.05,-0.02,0.04,-3.55,2.94,8.71,0.0,0.0,0.0,-3.99,3.32,8.31
1738244481.425151,27808,0,0,,0.0,-0.09,0.26,0.81,0.51,0.05,0.01,0.03,-4.2,2.8,8.37,0.0,0.0,0.0,-3.98,3.33,8.31
1738244481.4407346,27809,0,0,,0.0,-0.08,0.26,0.81,0.51,0.05,-0.0,0.03,-4.0,3.09,8.25,0.0,0.0,0.0,-3.98,3.34,8.31
1738244481.4604163,27810,0,0,,0.0,-0.08,0.26,0.81,0.51,0.01,0.0,0.02,-4.23,3.46,8.42,0.0,0.0,0.0,-3.98,3.34,8.31
1738244481.4783885,27811,0,0,,0.0,-0.08,0.26,0.81,0.51,-0.02,-0.02,0.01,-3.5,3.04,8.4,0.0,0.0,0.0,-3.98,3.34,8.31
1738244481.4968853,27812,0,0,,0.0,-0.08,0.26,0.81,0.51,-0.02,-0.03,0.0,-3.65,2.54,8.32,0.0,0.0,0.0,-3.98,3.33,8.31
1738244481.5122743,27813,0,0,,0.0,-0.08,0.26,0.81,0.51,-0.02,-0.02,-0.0,-4.81,3.02,8.19,0.0,0.0,0.0,-3.97,3.33,8.32
1738244481.527814,27814,0,0,,0.0,-0.08,0.26,0.81,0.51,-0.01,-0.04,0.01,-3.69,2.71,8.4,0.0,0.0,0.0,-3.97,3.33,8.32
1738244481.544151,27815,0,0,,0.0,-0.08,0.26,0.81,0.51,0.01,-0.03,0.01,-4.42,3.17,8.24,0.0,0.0,0.0,-3.96,3.33,8.32
1738244481.5616736,27816,0,0,,0.0,-0.08,0.26,0.81,0.51,0.02,-0.03,0.02,-3.86,2.7,8.36,0.0,0.0,0.0,-3.96,3.34,8.32
1738244481.5761714,27817,0,0,,0.0,-0.08,0.26,0.81,0.51,0.04,-0.01,0.01,-4.82,2.8,8.07,0.0,0.0,0.0,-3.96,3.34,8.32
