Time,header.seq,header.stamp.secs,header.stamp.nsecs,header.frame_id,time_stamp,quat_x,quat_y,quat_z,quat_w,gyro_x,gyro_y,gyro_z,accel_x,accel_y,accel_z,euler_x,euler_y,euler_z,gravity_x,gravity_y,gravity_z
1738244464.0609107,26769,0,0,,0.0,-0.65,0.31,0.66,0.2,0.18,0.32,-0.01,-9.77,1.09,-0.65,0.0,0.0,0.0,-9.68,1.45,-0.5
1738244464.0754213,26770,0,0,,0.0,-0.66,0.31,0.66,0.2,0.16,0.28,-0.0,-9.83,0.93,-0.4,0.0,0.0,0.0,-9.68,1.45,-0.56
1738244464.0938911,26771,0,0,,0.0,-0.66,0.32,0.65,0.2,0.14,0.26,0.0,-9.82,1.03,-0.38,0.0,0.0,0.0,-9.67,1.44,-0.61
1738244464.1107442,26772,0,0,,0.0,-0.66,0.32,0.65,0.2,0.02,0.26,0.03,-9.68,0.94,-0.65,0.0,0.0,0.0,-9.67,1.44,-0.64
1738244464.1252873,26773,0,0,,0.0,-0.66,0.32,0.65,0.2,-0.02,0.26,0.02,-9.5,1.11,-0.98,0.0,0.0,0.0,-9.67,1.44,-0.69
1738244464.1438522,26774,0,0,,0.0,-0.66,0.32,0.65,0.2,-0.11,0.26,0.06,-9.82,1.08,-0.41,0.0,0.0,0.0,-9.67,1.45,-0.73
1738244464.1611276,26775,0,0,,0.0,-0.66,0.32,0.65,0.2,-0.11,0.25,0.05,-9.49,1.43,-0.91,0.0,0.0,0.0,-9.66,1.45,-0.75
1738244464.1755176,26776,0,0,,0.0,-0.66,0.32,0.65,0.2,-0.11,0.27,0.05,-9.71,1.43,-0.34,0.0,0.0,0.0,-9.66,1.46,-0.8
1738244464.193725,26777,0,0,,0.0,-0.67,0.32,0.65,0.2,-0.07,0.28,-0.06,-9.36,1.29,-1.14,0.0,0.0,0.0,-9.66,1.44,-0.85
1738244464.2116697,26778,0,0,,0.0,-0.67,0.32,0.65,0.2,-0.05,0.33,-0.09,-9.78,1.37,-0.51,0.0,0.0,0.0,-9.66,1.43,-0.88
1738244464.2258813,26779,0,0,,0.0,-0.67,0.32,0.64,0.19,-0.06,0.36,-0.1,-9.83,1.01,-0.79,0.0,0.0,0.0,-9.65,1.42,-0.94
1738244464.2443979,26780,0,0,,0.0,-0.67,0.32,0.64,0.19,-0.07,0.37,-0.11,-9.78,1.12,-0.99,0.0,0.0,0.0,-9.65,1.4,-1.01
1738244464.2613444,26781,0,0,,0.0,-0.67,0.32,0.64,0.19,-0.08,0.36,-0.11,-9.71,0.85,-0.97,0.0,0.0,0.0,-9.65,1.39,-1.04
1738244464.2761397,26782,0,0,,0.0,-0.68,0.31,0.64,0.19,-0.07,0.36,-0.11,-9.59,1.01,-1.08,0.0,0.0,0.0,-9.64,1.36,-1.11
1738244464.294636,26783,0,0,,0.0,-0.68,0.31,0.63,0.19,-0.07,0.38,-0.11,-9.75,0.89,-0.76,0.0,0.0,0.0,-9.64,1.33,-1.17
1738244464.3117905,26784,0,0,,0.0,-0.68,0.31,0.63,0.19,-0.04,0.38,-0.12,-9.39,0.92,-1.54,0.0,0.0,0.0,-9.64,1.32,-1.2
1738244464.3260043,26785,0,0,,0.0,-0.68,0.31,0.63,0.19,0.02,0.41,-0.14,-9.59,0.84,-1.37,0.0,0.0,0.0,-9.63,1.3,-1.28
1738244464.3443964,26786,0,0,,0.0,-0.69,0.31,0.63,0.19,0.05,0.41,-0.14,-9.59,0.85,-1.26,0.0,0.0,0.0,-9.62,1.27,-1.36
1738244464.3620846,26787,0,0,,0.0,-0.69,0.31,0.63,0.19,0.06,0.43,-0.14,-9.7,0.89,-1.07,0.0,0.0,0.0,-9.62,1.26,-1.4
1738244464.3765492,26788,0,0,,0.0,-0.69,0.31,0.62,0.19,0.03,0.44,-0.14,-9.39,0.73,-1.92,0.0,0.0,0.0,-9.61,1.23,-1.48
1738244464.3944836,26789,0,0,,0.0,-0.69,0.31,0.62,0.19,0.02,0.45,-0.15,-9.88,0.86,-0.94,0.0,0.0,0.0,-9.6,1.2,-1.56
1738244464.4119103,26790,0,0,,0.0,-0.7,0.31,0.62,0.19,0.0,0.46,-0.14,-9.59,0.73,-1.86,0.0,0.0,0.0,-9.59,1.19,-1.61
1738244464.43315,26791,0,0,,0.0,-0.7,0.31,0.61,0.19,0.03,0.45,-0.15,-9.58,0.78,-1.83,0.0,0.0,0.0,-9.58,1.16,-1.69
1738244464.45347,26792,0,0,,0.0,-0.7,0.31,0.61,0.19,0.08,0.46,-0.16,-9.75,0.79,-1.47,0.0,0.0,0.0,-9.57,1.13,-1.78
1738244464.4679632,26793,0,0,,0.0,-0.7,0.31,0.61,0.19,0.1,0.45,-0.16,-9.42,0.5,-2.15,0.0,0.0,0.0,-9.56,1.09,-1.86
1738244464.485109,26794,0,0,,0.0,-0.71,0.31,0.6,0.19,0.13,0.46,-0.17,-9.85,0.68,-1.36,0.0,0.0,0.0,-9.55,1.04,-1.95
1738244464.5039809,26795,0,0,,0.0,-0.71,0.31,0.6,0.19,0.18,0.47,-0.18,-9.61,0.41,-2.11,0.0,0.0,0.0,-9.53,1.0,-2.04
1738244464.5183356,26796,0,0,,0.0,-0.71,0.31,0.6,0.19,0.23,0.48,-0.2,-9.46,0.5,-2.16,0.0,0.0,0.0,-9.53,0.97,-2.09
1738244464.5351253,26797,0,0,,0.0,-0.72,0.32,0.59,0.2,0.27,0.5,-0.2,-9.62,0.76,-1.76,0.0,0.0,0.0,-9.51,0.92,-2.18
1738244464.554205,26798,0,0,,0.0,-0.72,0.32,0.59,0.2,0.31,0.5,-0.23,-9.68,0.9,-1.58,0.0,0.0,0.0,-9.49,0.86,-2.27
1738244464.5688982,26799,0,0,,0.0,-0.72,0.32,0.58,0.2,0.27,0.55,-0.28,-10.51,1.43,-1.69,0.0,0.0,0.0,-9.48,0.83,-2.33
1738244464.5852692,26800,0,0,,0.0,-0.72,0.32,0.58,0.2,0.25,0.55,-0.3,-9.76,0.5,-2.73,0.0,0.0,0.0,-9.46,0.76,-2.43
1738244464.6043952,26801,0,0,,0.0,-0.73,0.32,0.57,0.2,0.32,0.59,-0.32,-9.69,0.16,-2.49,0.0,0.0,0.0,-9.44,0.69,-2.55
1738244464.6188462,26802,0,0,,0.0,-0.73,0.32,0.57,0.2,0.43,0.6,-0.33,-9.88,0.5,-2.46,0.0,0.0,0.0,-9.43,0.65,-2.6
1738244464.6350212,26803,0,0,,0.0,-0.73,0.32,0.56,0.2,0.4,0.62,-0.35,-10.19,0.06,-2.18,0.0,0.0,0.0,-9.4,0.56,-2.72
1738244464.6549513,26804,0,0,,0.0,-0.74,0.32,0.56,0.21,0.36,0.62,-0.38,-9.89,0.04,-2.88,0.0,0.0,0.0,-9.37,0.47,-2.84
1738244464.6689844,26805,0,0,,0.0,-0.74,0.32,0.56,0.21,0.37,0.66,-0.44,-10.24,0.06,-1.94,0.0,0.0,0.0,-9.35,0.42,-2.9
1738244464.6849658,26806,0,0,,0.0,-0.74,0.32,0.55,0.21,0.38,0.68,-0.46,-10.02,0.0,-2.57,0.0,0.0,0.0,-9.32,0.31,-3.03
1738244464.704299,26807,0,0,,0.0,-0.75,0.32,0.54,0.21,0.42,0.74,-0.51,-10.03,0.12,-2.72,0.0,0.0,0.0,-9.28,0.19,-3.16
1738244464.71938,26808,0,0,,0.0,-0.75,0.31,0.54,0.21,0.42,0.79,-0.55,-9.73,-0.29,-2.91,0.0,0.0,0.0,-9.25,0.13,-3.23
1738244464.7355466,26809,0,0,,0.0,-0.76,0.31,0.53,0.22,0.42,0.82,-0.58,-9.63,-0.26,-2.57,0.0,0.0,0.0,-9.2,0.0,-3.38
1738244464.7547817,26810,0,0,,0.0,-0.76,0.31,0.52,0.22,0.36,0.86,-0.63,-9.52,-0.5,-2.84,0.0,0.0,0.0,-9.14,-0.13,-3.53
1738244464.7691994,26811,0,0,,0.0,-0.77,0.31,0.52,0.22,0.33,0.91,-0.69,-9.44,-0.48,-3.18,0.0,0.0,0.0,-9.11,-0.21,-3.61
1738244464.785734,26812,0,0,,0.0,-0.77,0.31,0.51,0.23,0.33,0.96,-0.72,-9.46,-0.4,-2.98,0.0,0.0,0.0,-9.03,-0.36,-3.78
1738244464.804887,26813,0,0,,0.0,-0.78,0.31,0.49,0.23,0.37,1.07,-0.79,-9.33,-0.47,-2.91,0.0,0.0,0.0,-8.94,-0.53,-3.97
1738244464.8195,26814,0,0,,0.0,-0.78,0.3,0.49,0.23,0.45,1.2,-0.82,-9.51,-0.25,-2.79,0.0,0.0,0.0,-8.89,-0.62,-4.07
1738244464.8355167,26815,0,0,,0.0,-0.79,0.3,0.48,0.23,0.48,1.27,-0.83,-9.26,-0.26,-3.41,0.0,0.0,0.0,-8.79,-0.79,-4.25
1738244464.8547618,26816,0,0,,0.0,-0.8,0.3,0.46,0.24,0.52,1.45,-0.83,-9.63,-0.58,-2.81,0.0,0.0,0.0,-8.66,-0.97,-4.49
1738244464.8697805,26817,0,0,,0.0,-0.8,0.3,0.46,0.24,0.54,1.64,-0.8,-9.46,-0.92,-3.69,0.0,0.0,0.0,-8.58,-1.06,-4.62
1738244464.8857138,26818,0,0,,0.0,-0.81,0.3,0.44,0.24,0.53,1.76,-0.77,-10.17,-0.48,-3.82,0.0,0.0,0.0,-8.39,-1.23,-4.91
1738244464.9048483,26819,0,0,,0.0,-0.82,0.3,0.42,0.24,0.47,2.01,-0.68,-10.51,-0.19,-4.1,0.0,0.0,0.0,-8.17,-1.38,-5.23
1738244464.919482,26820,0,0,,0.0,-0.83,0.3,0.41,0.24,0.41,2.23,-0.58,-12.06,-0.34,-3.19,0.0,0.0,0.0,-8.05,-1.44,-5.4
1738244464.935893,26821,0,0,,0.0,-0.84,0.31,0.39,0.24,0.36,2.27,-0.54,-12.51,-1.28,-3.83,0.0,0.0,0.0,-7.79,-1.56,-5.74
1738244464.9549465,26822,0,0,,0.0,-0.84,0.31,0.37,0.24,0.39,2.33,-0.47,-12.82,-1.12,-3.94,0.0,0.0,0.0,-7.51,-1.68,-6.07
1738244464.9699852,26823,0,0,,0.0,-0.85,0.31,0.36,0.23,0.44,2.25,-0.37,-12.41,-1.3,-3.87,0.0,0.0,0.0,-7.37,-1.73,-6.22
1738244464.9860115,26824,0,0,,0.0,-0.86,0.31,0.34,0.23,0.39,2.15,-0.32,-10.37,-0.97,-3.24,0.0,0.0,0.0,-7.1,-1.81,-6.5
1738244465.005223,26825,0,0,,0.0,-0.86,0.32,0.32,0.23,0.18,1.82,-0.24,-9.63,-1.03,-3.1,0.0,0.0,0.0,-6.88,-1.86,-6.73
1738244465.0197053,26826,0,0,,0.0,-0.86,0.32,0.32,0.23,-0.31,1.34,-0.19,-8.34,-0.82,-3.29,0.0,0.0,0.0,-6.79,-1.85,-6.82
1738244465.0366511,26827,0,0,,0.0,-0.87,0.32,0.31,0.22,-0.57,1.07,-0.13,-7.63,-2.99,-4.61,0.0,0.0,0.0,-6.66,-1.77,-6.97
1738244465.055536,26828,0,0,,0.0,-0.87,0.31,0.31,0.21,-0.72,0.55,-0.07,-7.44,-3.47,-4.63,0.0,0.0,0.0,-6.6,-1.7,-7.04
1738244465.0700126,26829,0,0,,0.0,-0.87,0.31,0.31,0.21,-0.56,0.3,-0.11,-6.96,-3.21,-4.53,0.0,0.0,0.0,-6.6,-1.7,-7.04
1738244465.0858471,26830,0,0,,0.0,-0.87,0.31,0.31,0.21,-0.23,-0.11,-0.19,-6.36,-1.08,-5.84,0.0,0.0,0.0,-6.61,-1.68,-7.04
1738244465.1055999,26831,0,0,,0.0,-0.87,0.31,0.32,0.21,-0.39,-0.35,-0.26,-6.14,0.32,-7.73,0.0,0.0,0.0,-6.65,-1.64,-7.01
1738244465.1202002,26832,0,0,,0.0,-0.87,0.3,0.32,0.2,-0.59,-0.26,-0.26,-5.78,0.05,-8.99,0.0,0.0,0.0,-6.66,-1.62,-7.0
1738244465.1365826,26833,0,0,,0.0,-0.88,0.3,0.32,0.2,-0.59,-0.22,-0.25,-5.3,-0.93,-8.58,0.0,0.0,0.0,-6.68,-1.58,-6.99
1738244465.1558712,26834,0,0,,0.0,-0.88,0.3,0.32,0.2,-0.29,-0.27,-0.19,-5.1,-1.09,-7.76,0.0,0.0,0.0,-6.72,-1.57,-6.96
1738244465.1701238,26835,0,0,,0.0,-0.88,0.3,0.32,0.2,0.09,-0.42,-0.15,-4.14,-1.82,-7.07,0.0,0.0,0.0,-6.74,-1.59,-6.93
1738244465.186384,26836,0,0,,0.0,-0.87,0.29,0.33,0.21,0.2,-0.52,-0.15,-4.26,-1.62,-6.94,0.0,0.0,0.0,-6.82,-1.64,-6.84
1738244465.2054636,26837,0,0,,0.0,-0.87,0.29,0.34,0.21,0.33,-0.83,-0.09,-3.98,-1.3,-6.38,0.0,0.0,0.0,-6.93,-1.7,-6.71
1738244465.2204096,26838,0,0,,0.0,-0.87,0.29,0.34,0.22,0.49,-1.04,0.0,-4.35,-1.52,-3.89,0.0,0.0,0.0,-7.0,-1.73,-6.64
1738244465.2361372,26839,0,0,,0.0,-0.86,0.29,0.35,0.23,0.67,-1.18,0.08,-5.54,-0.39,-3.22,0.0,0.0,0.0,-7.16,-1.81,-6.44
1738244465.2556634,26840,0,0,,0.0,-0.85,0.29,0.36,0.24,0.81,-1.59,0.26,-5.46,-0.68,-3.87,0.0,0.0,0.0,-7.38,-1.86,-6.17
1738244465.270202,26841,0,0,,0.0,-0.85,0.29,0.37,0.24,0.64,-1.92,0.35,-6.33,-1.41,-3.9,0.0,0.0,0.0,-7.5,-1.88,-6.02
1738244465.2863889,26842,0,0,,0.0,-0.84,0.3,0.38,0.25,0.6,-2.05,0.42,-7.16,-1.38,-3.75,0.0,0.0,0.0,-7.76,-1.87,-5.69
1738244465.3051715,26843,0,0,,0.0,-0.83,0.3,0.4,0.26,0.51,-2.33,0.56,-7.13,-1.27,-3.87,0.0,0.0,0.0,-8.03,-1.84,-5.31
1738244465.3201346,26844,0,0,,0.0,-0.82,0.3,0.41,0.26,0.36,-2.49,0.62,-7.34,-1.0,-4.8,0.0,0.0,0.0,-8.16,-1.81,-5.11
1738244465.33617,26845,0,0,,0.0,-0.81,0.3,0.44,0.27,0.16,-2.55,0.74,-7.76,-0.89,-5.32,0.0,0.0,0.0,-8.44,-1.69,-4.69
1738244465.3556137,26846,0,0,,0.0,-0.79,0.29,0.46,0.27,-0.36,-2.62,0.94,-7.91,-0.97,-5.36,0.0,0.0,0.0,-8.69,-1.48,-4.27
1738244465.3705313,26847,0,0,,0.0,-0.79,0.29,0.47,0.26,-0.76,-2.64,1.04,-8.07,-1.59,-5.55,0.0,0.0,0.0,-8.82,-1.36,-4.06
1738244465.3867884,26848,0,0,,0.0,-0.77,0.29,0.5,0.26,-0.82,-2.64,1.06,-8.5,-2.21,-5.61,0.0,0.0,0.0,-9.04,-1.12,-3.62
1738244465.4065642,26849,0,0,,0.0,-0.76,0.29,0.52,0.26,-0.73,-2.64,1.08,-8.69,-2.44,-5.53,0.0,0.0,0.0,-9.23,-0.88,-3.16
1738244465.4208376,26850,0,0,,0.0,-0.75,0.29,0.53,0.26,-0.43,-2.67,1.09,-9.34,-2.98,-5.43,0.0,0.0,0.0,-9.32,-0.77,-2.93
1738244465.4364517,26851,0,0,,0.0,-0.74,0.29,0.56,0.26,-0.25,-2.68,1.11,-9.81,-3.0,-5.54,0.0,0.0,0.0,-9.47,-0.56,-2.44
1738244465.4555938,26852,0,0,,0.0,-0.72,0.29,0.58,0.26,-0.03,-2.65,1.14,-10.14,-2.74,-5.65,0.0,0.0,0.0,-9.6,-0.35,-1.96
1738244465.4702673,26853,0,0,,0.0,-0.71,0.29,0.59,0.26,-0.07,-2.54,1.15,-10.31,-2.41,-5.73,0.0,0.0,0.0,-9.65,-0.24,-1.72
1738244465.486402,26854,0,0,,0.0,-0.69,0.29,0.61,0.26,-0.18,-2.45,1.11,-10.19,-2.06,-5.74,0.0,0.0,0.0,-9.72,-0.03,-1.27
1738244465.5062428,26855,0,0,,0.0,-0.68,0.29,0.63,0.25,-0.43,-2.21,0.99,-10.13,-2.07,-5.8,0.0,0.0,0.0,-9.76,0.15,-0.87
1738244465.5208497,26856,0,0,,0.0,-0.67,0.29,0.63,0.25,-0.49,-1.88,0.85,-9.86,-2.24,-6.09,0.0,0.0,0.0,-9.77,0.23,-0.69
1738244465.536724,26857,0,0,,0.0,-0.67,0.29,0.64,0.25,-0.46,-1.69,0.77,-10.0,-2.43,-5.94,0.0,0.0,0.0,-9.78,0.31,-0.52
1738244465.5558455,26858,0,0,,0.0,-0.66,0.28,0.65,0.25,-0.38,-1.32,0.63,-9.73,-2.61,-5.7,0.0,0.0,0.0,-9.79,0.43,-0.29
1738244465.57042,26859,0,0,,0.0,-0.66,0.28,0.66,0.25,-0.33,-0.97,0.5,-9.34,-2.34,-5.77,0.0,0.0,0.0,-9.79,0.48,-0.19
1738244465.586314,26860,0,0,,0.0,-0.65,0.28,0.66,0.24,-0.39,-0.82,0.42,-8.48,-1.77,-6.79,0.0,0.0,0.0,-9.79,0.55,-0.05
1738244465.6062138,26861,0,0,,0.0,-0.65,0.28,0.67,0.24,-0.62,-0.51,0.27,-8.07,-1.4,-6.56,0.0,0.0,0.0,-9.78,0.59,0.02
1738244465.6206496,26862,0,0,,0.0,-0.65,0.28,0.67,0.24,-0.51,-0.07,0.02,-11.21,-0.46,0.84,0.0,0.0,0.0,-9.78,0.59,0.03
1738244465.6368423,26863,0,0,,0.0,-0.65,0.27,0.67,0.24,-0.38,-0.13,0.0,-12.54,2.79,4.55,0.0,0.0,0.0,-9.78,0.6,0.07
1738244465.655822,26864,0,0,,0.0,-0.65,0.28,0.67,0.23,-0.14,-0.33,0.29,-14.0,3.63,6.71,0.0,0.0,0.0,-9.78,0.67,0.15
1738244465.670402,26865,0,0,,0.0,-0.64,0.28,0.68,0.23,-0.5,-0.46,0.45,-9.8,0.21,-0.6,0.0,0.0,0.0,-9.77,0.72,0.2
1738244465.6866121,26866,0,0,,0.0,-0.64,0.27,0.68,0.23,-0.68,-0.28,0.33,-9.83,-2.31,0.0,0.0,0.0,0.0,-9.77,0.77,0.24
1738244465.7065158,26867,0,0,,0.0,-0.64,0.28,0.68,0.23,-0.16,0.03,0.21,-10.15,-2.0,0.15,0.0,0.0,0.0,-9.77,0.8,0.23
1738244465.720929,26868,0,0,,0.0,-0.64,0.28,0.68,0.23,0.16,0.12,0.19,-9.37,0.42,1.18,0.0,0.0,0.0,-9.76,0.82,0.22
1738244465.7368007,26869,0,0,,0.0,-0.64,0.28,0.68,0.23,0.16,0.11,0.21,-9.11,1.55,1.2,0.0,0.0,0.0,-9.76,0.86,0.19
1738244465.755928,26870,0,0,,0.0,-0.64,0.28,0.68,0.23,0.1,0.14,0.24,-9.31,1.88,0.98,0.0,0.0,0.0,-9.76,0.91,0.16
1738244465.770525,26871,0,0,,0.0,-0.64,0.29,0.68,0.23,0.05,0.18,0.23,-9.65,1.56,0.06,0.0,0.0,0.0,-9.76,0.93,0.14
1738244465.7862844,26872,0,0,,0.0,-0.64,0.29,0.67,0.22,0.11,0.15,0.26,-9.64,0.91,-0.79,0.0,0.0,0.0,-9.75,0.98,0.12
1738244465.805984,26873,0,0,,0.0,-0.64,0.29,0.67,0.22,0.22,0.11,0.27,-10.22,0.4,-0.07,0.0,0.0,0.0,-9.75,1.04,0.09
1738244465.8206081,26874,0,0,,0.0,-0.64,0.3,0.67,0.23,0.23,0.07,0.28,-9.99,0.29,0.09,0.0,0.0,0.0,-9.74,1.06,0.08
1738244465.8366292,26875,0,0,,0.0,-0.64,0.3,0.67,0.23,0.17,0.07,0.28,-9.95,0.24,0.28,0.0,0.0,0.0,-9.74,1.12,0.07
1738244465.8561413,26876,0,0,,0.0,-0.64,0.3,0.67,0.22,0.06,0.08,0.29,-9.76,0.25,-0.11,0.0,0.0,0.0,-9.73,1.17,0.05
1738244465.87027,26877,0,0,,0.0,-0.64,0.3,0.67,0.22,0.07,0.14,0.27,-9.43,0.65,0.14,0.0,0.0,0.0,-9.73,1.2,0.03
1738244465.886203,26878,0,0,,0.0,-0.64,0.31,0.67,0.22,0.09,0.19,0.24,-9.46,0.96,0.68,0.0,0.0,0.0,-9.72,1.24,0.0
1738244465.9059646,26879,0,0,,0.0,-0.64,0.31,0.67,0.22,0.25,0.29,0.19,-9.22,1.52,0.49,0.0,0.0,0.0,-9.72,1.27,-0.07
1738244465.920426,26880,0,0,,0.0,-0.64,0.31,0.67,0.22,0.31,0.39,0.15,-9.36,1.66,0.43,0.0,0.0,0.0,-9.72,1.29,-0.11
1738244465.93666,26881,0,0,,0.0,-0.64,0.31,0.66,0.22,0.31,0.4,0.13,-9.44,1.67,-0.51,0.0,0.0,0.0,-9.71,1.31,-0.19
1738244465.9559803,26882,0,0,,0.0,-0.64,0.32,0.66,0.22,0.15,0.43,0.1,-9.81,1.52,-0.07,0.0,0.0,0.0,-9.71,1.33,-0.27
1738244465.970086,26883,0,0,,0.0,-0.64,0.32,0.66,0.22,-0.03,0.4,0.1,-9.94,1.11,-0.92,0.0,0.0,0.0,-9.7,1.34,-0.31
1738244465.986732,26884,0,0,,0.0,-0.65,0.32,0.66,0.22,-0.09,0.38,0.1,-9.89,0.98,-0.62,0.0,0.0,0.0,-9.7,1.36,-0.38
1738244466.0066898,26885,0,0,,0.0,-0.65,0.32,0.66,0.21,-0.14,0.32,0.11,-9.81,0.55,-0.77,0.0,0.0,0.0,-9.69,1.38,-0.43
1738244466.0208857,26886,0,0,,0.0,-0.65,0.32,0.66,0.21,-0.08,0.28,0.11,-10.03,0.68,-0.28,0.0,0.0,0.0,-9.69,1.39,-0.46
1738244466.0366223,26887,0,0,,0.0,-0.65,0.32,0.66,0.21,-0.07,0.27,0.1,-9.95,1.29,0.13,0.0,0.0,0.0,-9.69,1.41,-0.51
1738244466.0562742,26888,0,0,,0.0,-0.65,0.32,0.65,0.21,-0.03,0.27,0.07,-9.57,1.41,-0.65,0.0,0.0,0.0,-9.68,1.42,-0.56
1738244466.0706377,26889,0,0,,0.0,-0.65,0.32,0.65,0.21,-0.06,0.32,0.01,-9.71,1.55,-0.39,0.0,0.0,0.0,-9.68,1.42,-0.59
1738244466.0867789,26890,0,0,,0.0,-0.66,0.32,0.65,0.21,-0.06,0.32,-0.01,-9.6,1.37,-0.74,0.0,0.0,0.0,-9.68,1.42,-0.65
1738244466.1069334,26891,0,0,,0.0,-0.66,0.32,0.65,0.21,-0.01,0.34,-0.05,-9.65,0.95,-0.68,0.0,0.0,0.0,-9.67,1.41,-0.71
1738244466.1209626,26892,0,0,,0.0,-0.66,0.32,0.65,0.21,0.04,0.33,-0.07,-9.45,1.18,-1.21,0.0,0.0,0.0,-9.67,1.4,-0.74
1738244466.137897,26893,0,0,,0.0,-0.66,0.32,0.64,0.21,0.07,0.33,-0.08,-9.85,1.39,-0.33,0.0,0.0,0.0,-9.67,1.39,-0.8
1738244466.157417,26894,0,0,,0.0,-0.66,0.32,0.64,0.21,0.01,0.33,-0.08,-9.76,0.64,-0.84,0.0,0.0,0.0,-9.66,1.37,-0.87
1738244466.1722953,26895,0,0,,0.0,-0.66,0.32,0.64,0.21,0.03,0.32,-0.02,-9.7,0.95,-0.95,0.0,0.0,0.0,-9.66,1.37,-0.9
1738244466.1884425,26896,0,0,,0.0,-0.67,0.32,0.64,0.21,0.02,0.28,0.0,-9.8,0.77,-1.06,0.0,0.0,0.0,-9.66,1.37,-0.95
1738244466.2068818,26897,0,0,,0.0,-0.67,0.33,0.64,0.21,0.03,0.26,0.0,-9.77,1.08,-0.91,0.0,0.0,0.0,-9.65,1.37,-1.0
1738244466.221447,26898,0,0,,0.0,-0.67,0.33,0.64,0.2,-0.08,0.23,0.07,-9.87,0.89,-0.49,0.0,0.0,0.0,-9.65,1.37,-1.02
1738244466.2374535,26899,0,0,,0.0,-0.67,0.33,0.64,0.2,-0.08,0.22,0.05,-9.54,1.0,-1.25,0.0,0.0,0.0,-9.64,1.39,-1.05
1738244466.2570467,26900,0,0,,0.0,-0.67,0.33,0.64,0.2,-0.16,0.23,0.09,-9.75,0.98,-0.79,0.0,0.0,0.0,-9.64,1.4,-1.09
1738244466.271102,26901,0,0,,0.0,-0.67,0.32,0.63,0.2,-0.13,0.23,0.0,-9.71,1.19,-0.69,0.0,0.0,0.0,-9.64,1.4,-1.11
1738244466.2869184,26902,0,0,,0.0,-0.67,0.32,0.63,0.2,-0.11,0.25,-0.03,-9.78,1.33,-0.55,0.0,0.0,0.0,-9.63,1.39,-1.14
1738244466.3067412,26903,0,0,,0.0,-0.68,0.32,0.63,0.2,-0.09,0.24,-0.04,-9.71,1.4,-1.04,0.0,0.0,0.0,-9.63,1.38,-1.19
1738244466.3213832,26904,0,0,,0.0,-0.68,0.32,0.63,0.2,-0.08,0.25,-0.06,-9.79,1.42,-0.97,0.0,0.0,0.0,-9.63,1.38,-1.21
1738244466.3379407,26905,0,0,,0.0,-0.68,0.32,0.63,0.2,-0.08,0.25,-0.06,-9.51,0.83,-1.49,0.0,0.0,0.0,-9.62,1.37,-1.25
1738244466.3570728,26906,0,0,,0.0,-0.68,0.32,0.63,0.2,-0.09,0.28,-0.08,-9.66,0.96,-1.27,0.0,0.0,0.0,-9.62,1.36,-1.3
1738244466.3709717,26907,0,0,,0.0,-0.68,0.32,0.63,0.19,-0.07,0.3,-0.08,-9.64,0.93,-1.32,0.0,0.0,0.0,-9.62,1.35,-1.33
1738244466.3874567,26908,0,0,,0.0,-0.68,0.32,0.63,0.19,-0.07,0.3,-0.08,-9.52,1.15,-1.44,0.0,0.0,0.0,-9.61,1.33,-1.38
1738244466.4067633,26909,0,0,,0.0,-0.69,0.32,0.62,0.19,-0.05,0.32,-0.08,-9.37,0.82,-1.71,0.0,0.0,0.0,-9.6,1.31,-1.44
1738244466.4214952,26910,0,0,,0.0,-0.69,0.32,0.62,0.19,-0.01,0.33,-0.09,-9.45,1.11,-1.53,0.0,0.0,0.0,-9.6,1.3,-1.47
1738244466.437304,26911,0,0,,0.0,-0.69,0.32,0.62,0.19,-0.01,0.33,-0.09,-9.63,1.12,-1.28,0.0,0.0,0.0,-9.6,1.28,-1.53
1738244466.4561427,26912,0,0,,0.0,-0.69,0.32,0.62,0.19,0.06,0.35,-0.11,-9.46,1.03,-1.41,0.0,0.0,0.0,-9.59,1.25,-1.6
1738244466.4703338,26913,0,0,,0.0,-0.69,0.32,0.62,0.19,0.09,0.38,-0.12,-9.68,0.98,-1.18,0.0,0.0,0.0,-9.58,1.23,-1.63
1738244466.4880238,26914,0,0,,0.0,-0.7,0.32,0.61,0.19,0.09,0.38,-0.12,-9.37,1.0,-1.97,0.0,0.0,0.0,-9.58,1.2,-1.7
1738244466.506949,26915,0,0,,0.0,-0.7,0.32,0.61,0.19,0.08,0.39,-0.12,-9.44,0.86,-1.81,0.0,0.0,0.0,-9.57,1.18,-1.77
1738244466.521654,26916,0,0,,0.0,-0.7,0.32,0.61,0.19,0.09,0.43,-0.15,-9.38,0.82,-2.1,0.0,0.0,0.0,-9.56,1.16,-1.81
1738244466.537761,26917,0,0,,0.0,-0.7,0.32,0.6,0.19,0.09,0.43,-0.15,-9.53,0.81,-1.89,0.0,0.0,0.0,-9.55,1.13,-1.89
1738244466.5567763,26918,0,0,,0.0,-0.71,0.32,0.6,0.19,0.11,0.42,-0.16,-9.48,0.99,-2.06,0.0,0.0,0.0,-9.54,1.09,-1.97
1738244466.5713043,26919,0,0,,0.0,-0.71,0.32,0.6,0.19,0.11,0.43,-0.18,-9.56,0.95,-1.58,0.0,0.0,0.0,-9.53,1.07,-2.01
1738244466.588644,26920,0,0,,0.0,-0.71,0.32,0.6,0.2,0.1,0.44,-0.19,-9.57,0.71,-1.69,0.0,0.0,0.0,-9.52,1.03,-2.1
1738244466.607144,26921,0,0,,0.0,-0.71,0.32,0.59,0.2,0.1,0.45,-0.21,-9.46,0.72,-2.49,0.0,0.0,0.0,-9.5,0.99,-2.18
1738244466.6217444,26922,0,0,,0.0,-0.71,0.32,0.59,0.2,0.09,0.48,-0.23,-9.79,0.56,-1.94,0.0,0.0,0.0,-9.5,0.96,-2.23
1738244466.6378777,26923,0,0,,0.0,-0.72,0.32,0.59,0.2,0.08,0.49,-0.25,-9.48,0.74,-2.33,0.0,0.0,0.0,-9.48,0.91,-2.32
1738244466.6565132,26924,0,0,,0.0,-0.72,0.32,0.58,0.2,0.12,0.5,-0.27,-9.59,0.55,-2.01,0.0,0.0,0.0,-9.46,0.86,-2.41
1738244466.6714869,26925,0,0,,0.0,-0.72,0.32,0.58,0.2,0.15,0.51,-0.29,-9.32,0.71,-2.86,0.0,0.0,0.0,-9.45,0.83,-2.46
1738244466.6874287,26926,0,0,,0.0,-0.73,0.32,0.57,0.2,0.17,0.51,-0.3,-9.81,0.72,-2.42,0.0,0.0,0.0,-9.43,0.76,-2.56
1738244466.7062793,26927,0,0,,0.0,-0.73,0.32,0.57,0.2,0.19,0.55,-0.34,-9.69,0.62,-2.6,0.0,0.0,0.0,-9.41,0.69,-2.66
1738244466.720992,26928,0,0,,0.0,-0.73,0.32,0.57,0.2,0.22,0.61,-0.39,-10.2,0.91,-2.15,0.0,0.0,0.0,-9.39,0.64,-2.72
1738244466.7373147,26929,0,0,,0.0,-0.74,0.32,0.56,0.2,0.22,0.63,-0.42,-10.2,0.17,-2.15,0.0,0.0,0.0,-9.36,0.55,-2.84
1738244466.7560992,26930,0,0,,0.0,-0.74,0.32,0.55,0.2,0.26,0.67,-0.45,-10.17,0.09,-2.34,0.0,0.0,0.0,-9.35,0.51,-2.9
1738244466.7705586,26931,0,0,,0.0,-0.75,0.31,0.55,0.2,0.28,0.73,-0.5,-10.02,-0.14,-3.09,0.0,0.0,0.0,-9.31,0.4,-3.03
1738244466.7874436,26932,0,0,,0.0,-0.75,0.31,0.54,0.21,0.25,0.76,-0.53,-10.31,-0.05,-2.49,0.0,0.0,0.0,-9.27,0.29,-3.17
1738244466.8060806,26933,0,0,,0.0,-0.76,0.31,0.54,0.21,0.18,0.8,-0.59,-10.05,-0.41,-3.13,0.0,0.0,0.0,-9.25,0.23,-3.24
1738244466.8208075,26934,0,0,,0.0,-0.76,0.31,0.53,0.21,0.18,0.85,-0.65,-9.95,-0.44,-2.68,0.0,0.0,0.0,-9.19,0.11,-3.39
1738244466.8367543,26935,0,0,,0.0,-0.77,0.31,0.52,0.21,0.22,0.87,-0.67,-9.59,-0.32,-3.06,0.0,0.0,0.0,-9.13,-0.02,-3.55
1738244466.8559985,26936,0,0,,0.0,-0.77,0.3,0.51,0.21,0.28,0.94,-0.73,-9.58,-0.27,-2.82,0.0,0.0,0.0,-9.1,-0.09,-3.64
1738244466.8706205,26937,0,0,,0.0,-0.78,0.3,0.51,0.22,0.39,1.03,-0.79,-9.6,-0.26,-2.57,0.0,0.0,0.0,-9.03,-0.26,-3.81
1738244466.886652,26938,0,0,,0.0,-0.78,0.3,0.5,0.22,0.45,1.09,-0.82,-9.31,-0.13,-3.21,0.0,0.0,0.0,-8.94,-0.44,-4.0
1738244466.9061778,26939,0,0,,0.0,-0.79,0.3,0.48,0.22,0.57,1.21,-0.85,-9.66,-0.3,-2.74,0.0,0.0,0.0,-8.88,-0.53,-4.1
1738244466.921047,26940,0,0,,0.0,-0.79,0.3,0.48,0.23,0.7,1.36,-0.87,-9.51,-0.28,-3.08,0.0,0.0,0.0,-8.77,-0.73,-4.31
1738244466.9370377,26941,0,0,,0.0,-0.8,0.3,0.46,0.23,0.73,1.43,-0.86,-9.63,-0.54,-2.88,0.0,0.0,0.0,-8.64,-0.94,-4.54
1738244466.9551537,26942,0,0,,0.0,-0.81,0.3,0.46,0.23,0.73,1.61,-0.82,-9.69,-0.72,-3.82,0.0,0.0,0.0,-8.56,-1.04,-4.66
1738244466.9707541,26943,0,0,,0.0,-0.81,0.3,0.44,0.24,0.63,1.85,-0.77,-10.41,-0.03,-3.61,0.0,0.0,0.0,-8.37,-1.23,-4.94
1738244466.9871216,26944,0,0,,0.0,-0.82,0.3,0.42,0.24,0.58,1.99,-0.72,-10.64,-0.14,-3.67,0.0,0.0,0.0,-8.15,-1.39,-5.26
1738244467.005968,26945,0,0,,0.0,-0.83,0.3,0.4,0.24,0.5,2.24,-0.61,-12.09,-0.25,-3.18,0.0,0.0,0.0,-8.03,-1.47,-5.43
1738244467.0209591,26946,0,0,,0.0,-0.84,0.3,0.39,0.24,0.46,2.36,-0.48,-12.83,-1.03,-3.6,0.0,0.0,0.0,-7.76,-1.6,-5.77
1738244467.0374153,26947,0,0,,0.0,-0.85,0.31,0.36,0.24,0.5,2.39,-0.44,-12.93,-0.82,-3.58,0.0,0.0,0.0,-7.47,-1.72,-6.1
1738244467.0560367,26948,0,0,,0.0,-0.85,0.31,0.34,0.23,0.56,2.29,-0.3,-12.24,-0.97,-3.86,0.0,0.0,0.0,-7.33,-1.77,-6.26
1738244467.0713086,26949,0,0,,0.0,-0.86,0.31,0.33,0.23,0.45,2.02,-0.21,-10.1,-0.6,-3.45,0.0,0.0,0.0,-7.06,-1.86,-6.53
1738244467.0872712,26950,0,0,,0.0,-0.86,0.32,0.32,0.23,0.29,1.8,-0.17,-9.5,-1.16,-3.72,0.0,0.0,0.0,-6.84,-1.91,-6.75
1738244467.1062725,26951,0,0,,0.0,-0.87,0.32,0.31,0.22,-0.2,1.31,-0.17,-7.55,-2.12,-4.21,0.0,0.0,0.0,-6.75,-1.91,-6.84
1738244467.1215527,26952,0,0,,0.0,-0.87,0.32,0.31,0.22,-0.47,0.82,-0.13,-7.54,-3.09,-4.34,0.0,0.0,0.0,-6.62,-1.87,-6.98
1738244467.1376271,26953,0,0,,0.0,-0.87,0.31,0.31,0.22,-0.45,0.58,-0.17,-7.27,-2.57,-4.87,0.0,0.0,0.0,-6.55,-1.83,-7.05
1738244467.1563418,26954,0,0,,0.0,-0.87,0.31,0.31,0.21,-0.48,0.11,-0.29,-6.81,-1.61,-6.17,0.0,0.0,0.0,-6.54,-1.81,-7.07
1738244467.1714754,26955,0,0,,0.0,-0.88,0.31,0.31,0.21,-0.66,-0.13,-0.35,-5.75,-0.67,-8.83,0.0,0.0,0.0,-6.54,-1.78,-7.08
1738244467.187638,26956,0,0,,0.0,-0.88,0.3,0.31,0.21,-0.75,-0.14,-0.35,-5.56,-0.7,-9.21,0.0,0.0,0.0,-6.54,-1.72,-7.09
1738244467.2063594,26957,0,0,,0.0,-0.88,0.3,0.31,0.2,-0.71,-0.06,-0.35,-5.01,-0.9,-8.87,0.0,0.0,0.0,-6.54,-1.69,-7.1
1738244467.2216988,26958,0,0,,0.0,-0.88,0.29,0.31,0.2,-0.56,-0.11,-0.29,-4.74,-0.84,-7.34,0.0,0.0,0.0,-6.55,-1.65,-7.1
1738244467.237924,26959,0,0,,0.0,-0.88,0.29,0.32,0.2,-0.44,-0.19,-0.26,-4.14,-1.33,-6.93,0.0,0.0,0.0,-6.57,-1.62,-7.09
1738244467.2559566,26960,0,0,,0.0,-0.88,0.29,0.32,0.2,-0.24,-0.34,-0.22,-3.9,-1.88,-7.07,0.0,0.0,0.0,-6.59,-1.62,-7.07
1738244467.2713618,26961,0,0,,0.0,-0.88,0.29,0.32,0.2,-0.02,-0.59,-0.17,-3.53,-2.04,-6.37,0.0,0.0,0.0,-6.65,-1.63,-7.0
1738244467.2881103,26962,0,0,,0.0,-0.88,0.28,0.33,0.2,0.1,-0.7,-0.14,-3.56,-2.32,-4.85,0.0,0.0,0.0,-6.75,-1.67,-6.9
1738244467.305942,26963,0,0,,0.0,-0.87,0.28,0.33,0.21,0.44,-0.97,-0.06,-4.71,-0.83,-2.75,0.0,0.0,0.0,-6.82,-1.71,-6.83
1738244467.3215473,26964,0,0,,0.0,-0.87,0.28,0.34,0.22,0.81,-1.31,0.1,-5.04,0.45,-3.19,0.0,0.0,0.0,-6.98,-1.8,-6.64
1738244467.3377144,26965,0,0,,0.0,-0.86,0.28,0.35,0.22,0.73,-1.5,0.22,-5.09,0.0,-3.34,0.0,0.0,0.0,-7.19,-1.84,-6.4
1738244467.3555555,26966,0,0,,0.0,-0.86,0.29,0.36,0.23,0.49,-1.84,0.41,-6.13,-1.53,-3.42,0.0,0.0,0.0,-7.31,-1.84,-6.26
1738244467.3714519,26967,0,0,,0.0,-0.85,0.29,0.38,0.24,0.57,-2.15,0.56,-6.67,-1.76,-3.67,0.0,0.0,0.0,-7.57,-1.83,-5.94
1738244467.3874886,26968,0,0,,0.0,-0.84,0.29,0.39,0.25,0.62,-2.28,0.64,-6.74,-1.86,-4.08,0.0,0.0,0.0,-7.86,-1.8,-5.57
1738244467.4053025,26969,0,0,,0.0,-0.83,0.29,0.4,0.25,0.63,-2.52,0.77,-7.33,-1.15,-4.56,0.0,0.0,0.0,-8.01,-1.77,-5.36
1738244467.4213138,26970,0,0,,0.0,-0.82,0.29,0.43,0.26,0.21,-2.69,0.95,-7.65,-1.1,-4.98,0.0,0.0,0.0,-8.3,-1.67,-4.93
1738244467.437965,26971,0,0,,0.0,-0.8,0.29,0.45,0.26,-0.07,-2.74,1.03,-7.85,-1.26,-5.22,0.0,0.0,0.0,-8.58,-1.48,-4.49
1738244467.4556642,26972,0,0,,0.0,-0.79,0.29,0.46,0.26,-0.47,-2.79,1.08,-8.33,-1.87,-5.85,0.0,0.0,0.0,-8.72,-1.37,-4.26
1738244467.4717407,26973,0,0,,0.0,-0.78,0.29,0.49,0.26,-0.64,-2.78,1.06,-9.13,-2.59,-5.61,0.0,0.0,0.0,-8.96,-1.14,-3.8
1738244467.487844,26974,0,0,,0.0,-0.77,0.29,0.51,0.26,-0.64,-2.78,1.04,-9.33,-2.87,-5.68,0.0,0.0,0.0,-9.17,-0.92,-3.32
1738244467.5055792,26975,0,0,,0.0,-0.76,0.29,0.53,0.26,-0.46,-2.78,0.99,-9.89,-3.08,-5.67,0.0,0.0,0.0,-9.27,-0.81,-3.08
1738244467.5216753,26976,0,0,,0.0,-0.74,0.29,0.55,0.26,-0.19,-2.74,1.02,-10.38,-2.51,-5.63,0.0,0.0,0.0,-9.43,-0.62,-2.58
1738244467.537965,26977,0,0,,0.0,-0.72,0.29,0.57,0.26,-0.11,-2.69,1.05,-10.45,-2.34,-5.62,0.0,0.0,0.0,-9.57,-0.42,-2.09
1738244467.556577,26978,0,0,,0.0,-0.72,0.29,0.58,0.26,-0.04,-2.53,1.08,-10.44,-1.62,-5.46,0.0,0.0,0.0,-9.62,-0.32,-1.86
1738244467.5716078,26979,0,0,,0.0,-0.7,0.29,0.6,0.26,-0.09,-2.3,1.07,-10.44,-1.5,-5.3,0.0,0.0,0.0,-9.7,-0.11,-1.42
1738244467.5877848,26980,0,0,,0.0,-0.68,0.29,0.62,0.26,-0.15,-2.17,1.06,-10.25,-1.68,-5.17,0.0,0.0,0.0,-9.75,0.08,-1.02
1738244467.6062076,26981,0,0,,0.0,-0.68,0.29,0.63,0.26,-0.16,-1.88,0.97,-10.05,-2.05,-5.25,0.0,0.0,0.0,-9.76,0.17,-0.84
1738244467.6220524,26982,0,0,,0.0,-0.67,0.29,0.64,0.25,-0.03,-1.54,0.84,-10.11,-2.37,-4.84,0.0,0.0,0.0,-9.78,0.34,-0.53
1738244467.6378748,26983,0,0,,0.0,-0.65,0.29,0.65,0.25,0.06,-1.38,0.77,-10.11,-2.41,-4.74,0.0,0.0,0.0,-9.79,0.47,-0.29
1738244467.6562164,26984,0,0,,0.0,-0.65,0.3,0.65,0.25,0.24,-1.08,0.63,-9.89,-1.85,-4.35,0.0,0.0,0.0,-9.79,0.53,-0.19
1738244467.6719036,26985,0,0,,0.0,-0.64,0.3,0.66,0.25,0.21,-0.78,0.48,-9.43,-1.82,-4.55,0.0,0.0,0.0,-9.78,0.63,-0.03
1738244467.68849,26986,0,0,,0.0,-0.64,0.3,0.66,0.25,0.08,-0.62,0.38,-9.19,-1.86,-4.48,0.0,0.0,0.0,-9.78,0.69,0.06
1738244467.7062502,26987,0,0,,0.0,-0.64,0.3,0.66,0.25,-0.25,-0.25,0.18,-9.19,-0.31,-3.43,0.0,0.0,0.0,-9.78,0.71,0.09
1738244467.7217078,26988,0,0,,0.0,-0.64,0.3,0.67,0.25,-0.59,0.1,0.01,-11.87,0.57,3.84,0.0,0.0,0.0,-9.77,0.72,0.09
1738244467.7381964,26989,0,0,,0.0,-0.64,0.29,0.67,0.25,-0.42,0.18,-0.05,-12.28,3.17,5.06,0.0,0.0,0.0,-9.78,0.71,0.09
1738244467.756064,26990,0,0,,0.0,-0.64,0.29,0.67,0.24,-0.55,-0.23,0.14,-11.57,3.02,3.23,0.0,0.0,0.0,-9.77,0.72,0.11
1738244467.7723377,26991,0,0,,0.0,-0.64,0.29,0.67,0.24,-0.5,-0.34,0.39,-10.43,-0.31,-0.32,0.0,0.0,0.0,-9.77,0.79,0.18
1738244467.78863,26992,0,0,,0.0,-0.64,0.29,0.67,0.24,-0.6,-0.24,0.36,-10.37,-2.08,0.16,0.0,0.0,0.0,-9.76,0.84,0.23
1738244467.8057883,26993,0,0,,0.0,-0.64,0.29,0.68,0.24,-0.3,0.0,0.21,-10.35,-1.54,0.33,0.0,0.0,0.0,-9.76,0.86,0.23
1738244467.8228033,26994,0,0,,0.0,-0.64,0.29,0.68,0.23,0.09,0.09,0.18,-9.75,0.03,1.19,0.0,0.0,0.0,-9.76,0.9,0.21
1738244467.8380105,26995,0,0,,0.0,-0.64,0.29,0.67,0.23,0.2,0.09,0.2,-9.41,0.54,1.0,0.0,0.0,0.0,-9.75,0.94,0.19
1738244467.8560743,26996,0,0,,0.0,-0.64,0.3,0.67,0.23,0.21,0.11,0.24,-9.29,1.36,0.55,0.0,0.0,0.0,-9.75,0.96,0.18
1738244467.8722806,26997,0,0,,0.0,-0.64,0.3,0.67,0.23,0.11,0.18,0.22,-9.41,1.77,-0.29,0.0,0.0,0.0,-9.75,1.0,0.15
1738244467.8888028,26998,0,0,,0.0,-0.64,0.3,0.67,0.23,0.04,0.18,0.22,-9.59,1.52,-0.09,0.0,0.0,0.0,-9.74,1.05,0.11
1738244467.9064786,26999,0,0,,0.0,-0.64,0.3,0.67,0.23,0.04,0.15,0.24,-9.74,0.73,-0.5,0.0,0.0,0.0,-9.74,1.07,0.1
1738244467.9226644,27000,0,0,,0.0,-0.64,0.3,0.67,0.23,0.1,0.13,0.24,-10.02,0.26,0.02,0.0,0.0,0.0,-9.74,1.11,0.07
1738244467.938129,27001,0,0,,0.0,-0.63,0.31,0.67,0.23,0.18,0.1,0.25,-9.97,0.16,0.34,0.0,0.0,0.0,-9.73,1.16,0.05
1738244467.9567719,27002,0,0,,0.0,-0.63,0.31,0.67,0.23,0.23,0.09,0.26,-10.05,0.36,0.56,0.0,0.0,0.0,-9.73,1.19,0.04
1738244467.9727132,27003,0,0,,0.0,-0.63,0.31,0.67,0.23,0.17,0.14,0.24,-9.86,1.03,0.78,0.0,0.0,0.0,-9.72,1.23,0.01
1738244467.9886477,27004,0,0,,0.0,-0.63,0.31,0.67,0.23,0.13,0.18,0.21,-9.18,1.42,0.0,0.0,0.0,0.0,-9.72,1.27,-0.02
1738244468.0064976,27005,0,0,,0.0,-0.64,0.32,0.67,0.23,0.02,0.3,0.14,-9.41,1.65,0.63,0.0,0.0,0.0,-9.72,1.28,-0.05
1738244468.022714,27006,0,0,,0.0,-0.64,0.32,0.67,0.23,0.03,0.39,0.08,-9.32,1.73,0.3,0.0,0.0,0.0,-9.71,1.3,-0.12
1738244468.0388675,27007,0,0,,0.0,-0.64,0.32,0.66,0.22,0.04,0.42,0.07,-9.61,1.58,-0.03,0.0,0.0,0.0,-9.71,1.31,-0.2
1738244468.057091,27008,0,0,,0.0,-0.64,0.32,0.66,0.22,0.04,0.44,0.06,-9.45,1.46,-0.54,0.0,0.0,0.0,-9.71,1.32,-0.24
1738244468.0730245,27009,0,0,,0.0,-0.64,0.32,0.66,0.22,-0.01,0.43,0.07,-9.71,1.31,-0.83,0.0,0.0,0.0,-9.7,1.33,-0.32
1738244468.0895298,27010,0,0,,0.0,-0.65,0.32,0.66,0.22,-0.06,0.4,0.08,-9.89,0.54,-0.66,0.0,0.0,0.0,-9.7,1.35,-0.39
1738244468.1068604,27011,0,0,,0.0,-0.65,0.32,0.66,0.22,-0.2,0.36,0.08,-9.95,0.49,-0.68,0.0,0.0,0.0,-9.7,1.35,-0.43
1738244468.1234992,27012,0,0,,0.0,-0.65,0.32,0.65,0.22,-0.25,0.3,0.11,-10.07,0.23,-0.93,0.0,0.0,0.0,-9.69,1.38,-0.48
1738244468.1384578,27013,0,0,,0.0,-0.65,0.32,0.65,0.21,-0.22,0.29,0.1,-9.66,0.86,-1.0,0.0,0.0,0.0,-9.69,1.4,-0.53
1738244468.1572542,27014,0,0,,0.0,-0.65,0.32,0.65,0.21,-0.15,0.25,0.09,-9.88,0.91,-0.16,0.0,0.0,0.0,-9.68,1.41,-0.55
1738244468.173181,27015,0,0,,0.0,-0.65,0.32,0.65,0.21,-0.1,0.26,0.04,-9.51,1.41,-0.59,0.0,0.0,0.0,-9.68,1.42,-0.59
1738244468.1886997,27016,0,0,,0.0,-0.66,0.32,0.65,0.21,-0.12,0.3,0.01,-9.57,1.56,-0.36,0.0,0.0,0.0,-9.68,1.41,-0.65
1738244468.2069395,27017,0,0,,0.0,-0.66,0.32,0.65,0.21,-0.09,0.36,-0.05,-9.52,1.3,-0.32,0.0,0.0,0.0,-9.67,1.41,-0.68
1738244468.2234297,27018,0,0,,0.0,-0.66,0.32,0.65,0.21,-0.03,0.38,-0.09,-9.71,1.36,-0.23,0.0,0.0,0.0,-9.67,1.4,-0.75
1738244468.2429597,27019,0,0,,0.0,-0.66,0.32,0.64,0.21,0.02,0.38,-0.1,-9.45,1.0,-1.3,0.0,0.0,0.0,-9.67,1.38,-0.82
1738244468.2604449,27020,0,0,,0.0,-0.67,0.32,0.64,0.21,0.1,0.35,-0.11,-9.49,0.84,-1.39,0.0,0.0,0.0,-9.67,1.35,-0.89
1738244468.275241,27021,0,0,,0.0,-0.67,0.32,0.64,0.21,0.09,0.34,-0.1,-9.67,0.68,-1.18,0.0,0.0,0.0,-9.66,1.34,-0.93
1738244468.2944114,27022,0,0,,0.0,-0.67,0.32,0.64,0.21,0.12,0.31,-0.03,-9.81,0.82,-0.94,0.0,0.0,0.0,-9.66,1.33,-0.99
1738244468.312201,27023,0,0,,0.0,-0.67,0.32,0.64,0.21,0.06,0.27,0.03,-9.89,0.99,-0.67,0.0,0.0,0.0,-9.65,1.33,-1.04
1738244468.326347,27024,0,0,,0.0,-0.67,0.32,0.63,0.21,0.05,0.25,0.02,-9.66,1.04,-1.24,0.0,0.0,0.0,-9.65,1.33,-1.07
1738244468.3422422,27025,0,0,,0.0,-0.67,0.32,0.63,0.21,-0.06,0.24,0.06,-9.9,1.03,-0.57,0.0,0.0,0.0,-9.65,1.33,-1.11
1738244468.359467,27026,0,0,,0.0,-0.67,0.32,0.63,0.2,-0.06,0.23,0.03,-9.55,0.87,-1.11,0.0,0.0,0.0,-9.64,1.32,-1.15
1738244468.3746846,27027,0,0,,0.0,-0.67,0.32,0.63,0.2,-0.1,0.26,0.03,-9.77,1.27,-0.81,0.0,0.0,0.0,-9.64,1.33,-1.17
1738244468.3896918,27028,0,0,,0.0,-0.68,0.32,0.63,0.2,-0.09,0.26,0.0,-9.46,1.19,-1.19,0.0,0.0,0.0,-9.63,1.32,-1.21
1738244468.4079623,27029,0,0,,0.0,-0.68,0.32,0.63,0.2,-0.09,0.28,-0.02,-9.67,1.32,-0.76,0.0,0.0,0.0,-9.63,1.32,-1.27
1738244468.4239686,27030,0,0,,0.0,-0.68,0.32,0.63,0.2,-0.08,0.29,-0.07,-9.5,0.86,-1.26,0.0,0.0,0.0,-9.63,1.31,-1.29
1738244468.442793,27031,0,0,,0.0,-0.68,0.32,0.63,0.2,-0.06,0.32,-0.1,-9.58,1.02,-1.34,0.0,0.0,0.0,-9.62,1.29,-1.34
1738244468.4603271,27032,0,0,,0.0,-0.68,0.32,0.62,0.2,-0.05,0.35,-0.11,-9.79,1.02,-1.2,0.0,0.0,0.0,-9.62,1.28,-1.4
1738244468.4754224,27033,0,0,,0.0,-0.69,0.32,0.62,0.2,-0.05,0.35,-0.12,-9.67,0.87,-1.26,0.0,0.0,0.0,-9.61,1.27,-1.43
1738244468.4900723,27034,0,0,,0.0,-0.69,0.32,0.62,0.2,-0.02,0.35,-0.12,-9.66,1.05,-1.22,0.0,0.0,0.0,-9.6,1.25,-1.5
1738244468.507972,27035,0,0,,0.0,-0.69,0.32,0.62,0.2,-0.01,0.36,-0.13,-9.71,1.01,-1.06,0.0,0.0,0.0,-9.6,1.22,-1.56
1738244468.524156,27036,0,0,,0.0,-0.69,0.32,0.62,0.2,0.0,0.37,-0.13,-9.83,1.06,-1.24,0.0,0.0,0.0,-9.59,1.21,-1.6
1738244468.539446,27037,0,0,,0.0,-0.69,0.32,0.61,0.2,0.03,0.37,-0.14,-9.39,0.74,-2.07,0.0,0.0,0.0,-9.59,1.18,-1.67
1738244468.5578403,27038,0,0,,0.0,-0.7,0.32,0.61,0.2,0.08,0.39,-0.15,-9.74,0.72,-1.51,0.0,0.0,0.0,-9.58,1.17,-1.7
1738244468.574143,27039,0,0,,0.0,-0.7,0.32,0.61,0.2,0.14,0.38,-0.16,-9.51,0.86,-1.82,0.0,0.0,0.0,-9.57,1.13,-1.78
1738244468.5898678,27040,0,0,,0.0,-0.7,0.32,0.61,0.2,0.16,0.39,-0.16,-9.67,0.75,-1.63,0.0,0.0,0.0,-9.56,1.09,-1.85
1738244468.6075985,27041,0,0,,0.0,-0.7,0.32,0.6,0.2,0.19,0.4,-0.17,-9.38,0.7,-2.29,0.0,0.0,0.0,-9.56,1.07,-1.89
1738244468.6246302,27042,0,0,,0.0,-0.7,0.32,0.6,0.2,0.21,0.42,-0.19,-9.73,0.93,-1.61,0.0,0.0,0.0,-9.54,1.03,-1.97
1738244468.639794,27043,0,0,,0.0,-0.71,0.32,0.6,0.2,0.21,0.41,-0.19,-9.77,0.61,-1.8,0.0,0.0,0.0,-9.53,0.99,-2.05
1738244468.6579654,27044,0,0,,0.0,-0.71,0.32,0.59,0.2,0.24,0.46,-0.22,-9.59,0.79,-2.02,0.0,0.0,0.0,-9.52,0.96,-2.1
1738244468.6745694,27045,0,0,,0.0,-0.71,0.32,0.59,0.2,0.27,0.47,-0.23,-9.54,0.79,-1.85,0.0,0.0,0.0,-9.51,0.91,-2.19
1738244468.6896515,27046,0,0,,0.0,-0.71,0.32,0.58,0.2,0.26,0.48,-0.25,-9.52,0.92,-1.78,0.0,0.0,0.0,-9.49,0.85,-2.28
1738244468.7078607,27047,0,0,,0.0,-0.72,0.33,0.58,0.21,0.25,0.52,-0.28,-9.69,0.55,-1.71,0.0,0.0,0.0,-9.48,0.82,-2.33
1738244468.7246194,27048,0,0,,0.0,-0.72,0.32,0.58,0.21,0.25,0.57,-0.32,-9.44,0.7,-2.19,0.0,0.0,0.0,-9.46,0.75,-2.43
1738244468.7396336,27049,0,0,,0.0,-0.73,0.32,0.57,0.21,0.26,0.61,-0.33,-9.88,0.66,-2.35,0.0,0.0,0.0,-9.44,0.68,-2.55
1738244468.7582374,27050,0,0,,0.0,-0.73,0.32,0.57,0.21,0.27,0.65,-0.39,-10.12,0.75,-2.19,0.0,0.0,0.0,-9.42,0.64,-2.61
1738244468.7747877,27051,0,0,,0.0,-0.73,0.32,0.56,0.21,0.24,0.7,-0.45,-10.76,0.74,-2.09,0.0,0.0,0.0,-9.39,0.54,-2.74
1738244468.7901766,27052,0,0,,0.0,-0.74,0.32,0.56,0.21,0.23,0.72,-0.49,-10.14,0.07,-2.8,0.0,0.0,0.0,-9.36,0.44,-2.88
1738244468.8081434,27053,0,0,,0.0,-0.74,0.32,0.55,0.21,0.3,0.76,-0.51,-10.49,-0.04,-1.84,0.0,0.0,0.0,-9.34,0.39,-2.95
1738244468.824892,27054,0,0,,0.0,-0.75,0.32,0.54,0.21,0.31,0.8,-0.55,-10.22,-0.46,-2.96,0.0,0.0,0.0,-9.3,0.27,-3.09
1738244468.8407035,27055,0,0,,0.0,-0.75,0.32,0.54,0.22,0.25,0.83,-0.6,-10.33,-0.29,-2.48,0.0,0.0,0.0,-9.25,0.15,-3.24
1738244468.8586485,27056,0,0,,0.0,-0.76,0.31,0.53,0.22,0.15,0.85,-0.66,-9.93,-0.47,-2.87,0.0,0.0,0.0,-9.22,0.08,-3.32
1738244468.874743,27057,0,0,,0.0,-0.76,0.31,0.52,0.22,0.22,0.89,-0.69,-9.85,-0.61,-2.61,0.0,0.0,0.0,-9.16,-0.04,-3.47
1738244468.8900807,27058,0,0,,0.0,-0.77,0.31,0.52,0.22,0.3,0.91,-0.71,-9.69,-0.36,-2.54,0.0,0.0,0.0,-9.1,-0.19,-3.64
1738244468.9086237,27059,0,0,,0.0,-0.77,0.31,0.51,0.22,0.4,0.96,-0.75,-9.37,-0.26,-2.98,0.0,0.0,0.0,-9.06,-0.27,-3.72
1738244468.9250965,27060,0,0,,0.0,-0.78,0.31,0.5,0.23,0.47,1.03,-0.78,-9.4,-0.55,-3.08,0.0,0.0,0.0,-8.98,-0.44,-3.89
1738244468.9405344,27061,0,0,,0.0,-0.78,0.3,0.49,0.23,0.51,1.06,-0.8,-9.07,-0.5,-3.3,0.0,0.0,0.0,-8.89,-0.62,-4.07
1738244468.958955,27062,0,0,,0.0,-0.79,0.3,0.48,0.24,0.64,1.14,-0.79,-9.09,-0.65,-3.01,0.0,0.0,0.0,-8.84,-0.71,-4.17
1738244468.9752781,27063,0,0,,0.0,-0.79,0.3,0.47,0.24,0.72,1.23,-0.79,-8.82,-0.39,-3.36,0.0,0.0,0.0,-8.73,-0.91,-4.36
1738244468.9907074,27064,0,0,,0.0,-0.8,0.3,0.46,0.24,0.68,1.3,-0.78,-8.87,-0.75,-3.49,0.0,0.0,0.0,-8.6,-1.09,-4.57
1738244469.008781,27065,0,0,,0.0,-0.81,0.3,0.44,0.25,0.55,1.45,-0.79,-8.81,-0.86,-3.96,0.0,0.0,0.0,-8.44,-1.27,-4.81
1738244469.025094,27066,0,0,,0.0,-0.81,0.3,0.43,0.25,0.44,1.66,-0.76,-9.41,-0.59,-3.87,0.0,0.0,0.0,-8.35,-1.35,-4.94
1738244469.040434,27067,0,0,,0.0,-0.82,0.3,0.42,0.25,0.43,1.75,-0.72,-9.75,-0.79,-3.99,0.0,0.0,0.0,-8.16,-1.51,-5.21
1738244469.0586987,27068,0,0,,0.0,-0.83,0.3,0.4,0.25,0.4,1.91,-0.67,-10.47,-0.78,-3.77,0.0,0.0,0.0,-7.94,-1.65,-5.5
1738244469.0750945,27069,0,0,,0.0,-0.83,0.3,0.39,0.25,0.34,2.0,-0.62,-10.81,-1.21,-4.36,0.0,0.0,0.0,-7.82,-1.72,-5.65
1738244469.0906603,27070,0,0,,0.0,-0.84,0.3,0.37,0.24,0.33,2.05,-0.59,-11.3,-1.38,-4.74,0.0,0.0,0.0,-7.57,-1.84,-5.95
1738244469.1091318,27071,0,0,,0.0,-0.85,0.31,0.35,0.24,0.29,2.07,-0.56,-11.19,-1.69,-4.8,0.0,0.0,0.0,-7.3,-1.95,-6.23
1738244469.1254978,27072,0,0,,0.0,-0.86,0.31,0.34,0.24,0.19,2.0,-0.52,-10.62,-1.14,-4.53,0.0,0.0,0.0,-7.17,-2.0,-6.37
1738244469.140379,27073,0,0,,0.0,-0.86,0.31,0.32,0.24,0.09,1.93,-0.49,-9.77,-1.5,-4.49,0.0,0.0,0.0,-6.91,-2.07,-6.63
1738244469.1589031,27074,0,0,,0.0,-0.87,0.3,0.31,0.23,-0.21,1.75,-0.46,-9.32,-1.41,-4.48,0.0,0.0,0.0,-6.68,-2.09,-6.86
1738244469.1754231,27075,0,0,,0.0,-0.87,0.3,0.3,0.23,-0.48,1.49,-0.43,-9.05,-2.42,-5.18,0.0,0.0,0.0,-6.57,-2.09,-6.97
1738244469.1907566,27076,0,0,,0.0,-0.88,0.3,0.29,0.22,-0.55,1.35,-0.42,-8.24,-2.79,-6.92,0.0,0.0,0.0,-6.37,-2.06,-7.15
1738244469.2091908,27077,0,0,,0.0,-0.89,0.3,0.29,0.21,-0.55,1.1,-0.45,-7.77,-2.66,-7.85,0.0,0.0,0.0,-6.21,-2.04,-7.3
1738244469.2261927,27078,0,0,,0.0,-0.89,0.3,0.28,0.21,-0.6,0.97,-0.51,-6.49,-2.35,-9.06,0.0,0.0,0.0,-6.13,-2.03,-7.37
1738244469.2409275,27079,0,0,,0.0,-0.89,0.29,0.27,0.21,-0.54,0.97,-0.55,-5.85,-1.53,-8.38,0.0,0.0,0.0,-5.97,-2.02,-7.5
1738244469.259004,27080,0,0,,0.0,-0.9,0.29,0.27,0.2,-0.38,0.9,-0.57,-5.4,-1.43,-7.88,0.0,0.0,0.0,-5.82,-2.04,-7.62
1738244469.2757406,27081,0,0,,0.0,-0.9,0.29,0.26,0.2,-0.18,0.72,-0.49,-4.59,-1.46,-6.9,0.0,0.0,0.0,-5.76,-2.05,-7.66
1738244469.290909,27082,0,0,,0.0,-0.9,0.28,0.26,0.2,-0.09,0.6,-0.46,-4.39,-1.6,-5.81,0.0,0.0,0.0,-5.66,-2.09,-7.72
1738244469.3092227,27083,0,0,,0.0,-0.9,0.28,0.25,0.2,0.1,0.31,-0.41,-4.26,-1.5,-5.54,0.0,0.0,0.0,-5.61,-2.16,-7.74
1738244469.3258255,27084,0,0,,0.0,-0.9,0.28,0.25,0.2,0.19,-0.0,-0.33,-3.92,-1.57,-5.04,0.0,0.0,0.0,-5.6,-2.19,-7.74
1738244469.340812,27085,0,0,,0.0,-0.9,0.28,0.25,0.21,0.25,-0.17,-0.27,-3.24,-1.97,-5.9,0.0,0.0,0.0,-5.62,-2.26,-7.7
1738244469.3592882,27086,0,0,,0.0,-0.9,0.28,0.26,0.21,0.31,-0.45,-0.22,-3.34,-1.39,-5.1,0.0,0.0,0.0,-5.7,-2.33,-7.62
1738244469.37621,27087,0,0,,0.0,-0.9,0.27,0.26,0.21,0.36,-0.82,-0.06,-3.26,-0.82,-4.22,0.0,0.0,0.0,-5.76,-2.36,-7.57
1738244469.3909717,27088,0,0,,0.0,-0.9,0.27,0.27,0.22,0.26,-1.14,0.1,-3.68,-1.26,-4.72,0.0,0.0,0.0,-5.91,-2.39,-7.44
1738244469.4094043,27089,0,0,,0.0,-0.89,0.27,0.28,0.22,0.21,-1.31,0.16,-4.17,-1.99,-4.63,0.0,0.0,0.0,-6.12,-2.4,-7.27
1738244469.4260173,27090,0,0,,0.0,-0.89,0.27,0.29,0.23,0.24,-1.6,0.26,-4.94,-2.46,-4.79,0.0,0.0,0.0,-6.24,-2.4,-7.16
1738244469.4410288,27091,0,0,,0.0,-0.88,0.27,0.3,0.23,0.3,-1.75,0.3,-5.99,-2.23,-4.76,0.0,0.0,0.0,-6.5,-2.41,-6.92
1738244469.4589138,27092,0,0,,0.0,-0.87,0.27,0.32,0.24,0.53,-2.01,0.41,-6.25,-1.74,-4.78,0.0,0.0,0.0,-6.8,-2.43,-6.63
1738244469.4763005,27093,0,0,,0.0,-0.87,0.27,0.33,0.25,0.57,-2.23,0.55,-6.97,-0.95,-4.81,0.0,0.0,0.0,-6.95,-2.43,-6.47
1738244469.4910154,27094,0,0,,0.0,-0.86,0.27,0.35,0.25,0.49,-2.3,0.58,-7.42,-0.91,-5.12,0.0,0.0,0.0,-7.26,-2.39,-6.13
1738244469.5091,27095,0,0,,0.0,-0.85,0.28,0.37,0.26,0.11,-2.43,0.77,-7.72,-0.83,-4.97,0.0,0.0,0.0,-7.58,-2.27,-5.77
1738244469.5265884,27096,0,0,,0.0,-0.84,0.28,0.38,0.26,-0.33,-2.55,0.97,-7.96,-0.95,-5.34,0.0,0.0,0.0,-7.75,-2.18,-5.59
1738244469.5408602,27097,0,0,,0.0,-0.83,0.28,0.41,0.26,-0.67,-2.64,1.15,-8.37,-1.53,-5.58,0.0,0.0,0.0,-8.06,-1.95,-5.21
1738244469.5595737,27098,0,0,,0.0,-0.82,0.28,0.44,0.25,-0.69,-2.67,1.21,-8.63,-1.73,-5.61,0.0,0.0,0.0,-8.37,-1.69,-4.81
1738244469.5762427,27099,0,0,,0.0,-0.81,0.28,0.45,0.25,-0.53,-2.72,1.29,-9.36,-2.48,-5.43,0.0,0.0,0.0,-8.51,-1.56,-4.6
1738244469.5911708,27100,0,0,,0.0,-0.8,0.28,0.47,0.25,-0.2,-2.77,1.31,-10.03,-2.78,-5.07,0.0,0.0,0.0,-8.78,-1.32,-4.14
1738244469.6103709,27101,0,0,,0.0,-0.78,0.28,0.5,0.25,-0.06,-2.79,1.33,-10.25,-2.79,-4.95,0.0,0.0,0.0,-9.03,-1.08,-3.66
1738244469.6269996,27102,0,0,,0.0,-0.77,0.28,0.51,0.25,0.14,-2.82,1.36,-10.69,-2.48,-4.51,0.0,0.0,0.0,-9.14,-0.97,-3.41
1738244469.6425893,27103,0,0,,0.0,-0.75,0.29,0.54,0.26,0.17,-2.83,1.36,-11.04,-2.03,-4.27,0.0,0.0,0.0,-9.33,-0.74,-2.9
1738244469.6599762,27104,0,0,,0.0,-0.73,0.29,0.56,0.26,0.12,-2.82,1.35,-11.07,-1.96,-4.21,0.0,0.0,0.0,-9.49,-0.49,-2.39
1738244469.6776588,27105,0,0,,0.0,-0.72,0.29,0.57,0.26,-0.07,-2.74,1.32,-10.98,-1.83,-4.22,0.0,0.0,0.0,-9.56,-0.37,-2.14
1738244469.6934452,27106,0,0,,0.0,-0.71,0.29,0.59,0.26,-0.26,-2.6,1.26,-10.9,-1.78,-4.55,0.0,0.0,0.0,-9.66,-0.13,-1.65
1738244469.7100067,27107,0,0,,0.0,-0.69,0.29,0.61,0.25,-0.35,-2.51,1.2,-10.88,-1.81,-4.53,0.0,0.0,0.0,-9.73,0.1,-1.19
1738244469.7276907,27108,0,0,,0.0,-0.68,0.29,0.62,0.25,-0.42,-2.28,1.08,-10.57,-2.17,-4.72,0.0,0.0,0.0,-9.75,0.2,-0.97
1738244469.743055,27109,0,0,,0.0,-0.67,0.29,0.64,0.25,-0.27,-2.0,0.92,-10.25,-2.63,-5.23,0.0,0.0,0.0,-9.78,0.39,-0.58
1738244469.7603776,27110,0,0,,0.0,-0.65,0.29,0.65,0.25,-0.14,-1.83,0.84,-9.91,-2.67,-5.48,0.0,0.0,0.0,-9.78,0.54,-0.25
1738244469.7774985,27111,0,0,,0.0,-0.65,0.29,0.66,0.25,0.04,-1.46,0.68,-9.29,-2.27,-5.54,0.0,0.0,0.0,-9.78,0.6,-0.11
1738244469.792549,27112,0,0,,0.0,-0.64,0.29,0.67,0.25,-0.03,-1.08,0.52,-8.77,-1.74,-5.91,0.0,0.0,0.0,-9.77,0.71,0.1
1738244469.8098967,27113,0,0,,0.0,-0.63,0.29,0.67,0.25,-0.14,-0.87,0.42,-8.44,-1.57,-6.27,0.0,0.0,0.0,-9.77,0.78,0.25
1738244469.8271394,27114,0,0,,0.0,-0.63,0.29,0.67,0.25,-0.47,-0.34,0.2,-8.27,-1.85,-6.74,0.0,0.0,0.0,-9.76,0.8,0.28
1738244469.8426208,27115,0,0,,0.0,-0.63,0.29,0.67,0.24,-0.74,0.16,-0.05,-9.55,-2.54,-3.1,0.0,0.0,0.0,-9.76,0.8,0.28
1738244469.8599448,27116,0,0,,0.0,-0.64,0.28,0.67,0.24,-0.68,0.24,-0.14,-9.39,-0.72,-0.97,0.0,0.0,0.0,-9.77,0.76,0.25
1738244469.8769925,27117,0,0,,0.0,-0.64,0.28,0.67,0.24,-0.61,0.24,-0.17,-10.61,0.8,1.82,0.0,0.0,0.0,-9.77,0.75,0.23
1738244469.8924868,27118,0,0,,0.0,-0.64,0.28,0.68,0.24,-0.52,-0.04,0.02,-12.13,3.57,5.51,0.0,0.0,0.0,-9.77,0.73,0.23
1738244469.9099622,27119,0,0,,0.0,-0.64,0.28,0.68,0.23,-0.4,-0.22,0.21,-12.14,3.54,4.73,0.0,0.0,0.0,-9.77,0.79,0.29
1738244469.9276984,27120,0,0,,0.0,-0.64,0.28,0.68,0.23,-0.5,-0.35,0.42,-10.07,-0.93,-0.94,0.0,0.0,0.0,-9.76,0.83,0.33
1738244469.9424076,27121,0,0,,0.0,-0.64,0.28,0.68,0.23,-0.31,-0.11,0.28,-10.23,-1.85,-0.11,0.0,0.0,0.0,-9.75,0.88,0.37
1738244469.9604518,27122,0,0,,0.0,-0.63,0.28,0.68,0.23,-0.08,-0.02,0.23,-10.28,-1.44,0.38,0.0,0.0,0.0,-9.75,0.93,0.36
1738244469.977377,27123,0,0,,0.0,-0.63,0.28,0.68,0.23,0.23,0.05,0.21,-9.66,0.04,1.54,0.0,0.0,0.0,-9.75,0.95,0.36
1738244469.992941,27124,0,0,,0.0,-0.63,0.29,0.68,0.23,0.24,0.11,0.23,-9.35,1.08,1.64,0.0,0.0,0.0,-9.74,0.99,0.34
1738244470.0103347,27125,0,0,,0.0,-0.63,0.29,0.68,0.23,0.2,0.16,0.23,-9.23,1.3,0.87,0.0,0.0,0.0,-9.74,1.04,0.3
1738244470.0279243,27126,0,0,,0.0,-0.63,0.29,0.68,0.23,0.09,0.25,0.21,-9.27,1.49,0.12,0.0,0.0,0.0,-9.74,1.06,0.28
1738244470.0429695,27127,0,0,,0.0,-0.63,0.29,0.68,0.23,0.09,0.26,0.22,-9.75,1.1,0.15,0.0,0.0,0.0,-9.74,1.1,0.22
1738244470.0602665,27128,0,0,,0.0,-0.63,0.3,0.68,0.23,0.13,0.25,0.23,-9.8,0.74,0.03,0.0,0.0,0.0,-9.73,1.14,0.17
1738244470.0775416,27129,0,0,,0.0,-0.63,0.3,0.68,0.23,0.34,0.22,0.23,-9.73,0.22,-0.06,0.0,0.0,0.0,-9.73,1.16,0.15
1738244470.0931349,27130,0,0,,0.0,-0.63,0.31,0.67,0.23,0.48,0.25,0.22,-9.99,0.45,0.56,0.0,0.0,0.0,-9.73,1.21,0.09
1738244470.1103473,27131,0,0,,0.0,-0.63,0.31,0.67,0.23,0.46,0.27,0.22,-9.63,0.54,0.02,0.0,0.0,0.0,-9.72,1.25,0.03
1738244470.127832,27132,0,0,,0.0,-0.63,0.31,0.67,0.23,0.36,0.35,0.17,-9.71,1.28,0.5,0.0,0.0,0.0,-9.72,1.26,0.0
1738244470.1429586,27133,0,0,,0.0,-0.64,0.32,0.67,0.23,0.21,0.42,0.13,-9.53,1.5,0.42,0.0,0.0,0.0,-9.72,1.29,-0.08
1738244470.160371,27134,0,0,,0.0,-0.64,0.32,0.66,0.23,0.17,0.45,0.12,-9.54,1.49,0.52,0.0,0.0,0.0,-9.71,1.31,-0.17
1738244470.1779091,27135,0,0,,0.0,-0.64,0.32,0.66,0.23,0.09,0.48,0.11,-9.83,1.72,0.36,0.0,0.0,0.0,-9.71,1.32,-0.22
1738244470.1932447,27136,0,0,,0.0,-0.64,0.32,0.66,0.22,-0.03,0.46,0.11,-9.38,1.38,-0.95,0.0,0.0,0.0,-9.7,1.34,-0.3
1738244470.210847,27137,0,0,,0.0,-0.64,0.32,0.66,0.22,-0.11,0.46,0.11,-9.79,1.44,-0.56,0.0,0.0,0.0,-9.7,1.36,-0.38
1738244470.2279196,27138,0,0,,0.0,-0.65,0.32,0.66,0.22,-0.26,0.4,0.12,-9.86,0.91,-0.76,0.0,0.0,0.0,-9.69,1.37,-0.42
1738244470.2442827,27139,0,0,,0.0,-0.65,0.32,0.65,0.22,-0.27,0.34,0.13,-10.21,0.32,-0.38,0.0,0.0,0.0,-9.69,1.4,-0.48
1738244470.2606015,27140,0,0,,0.0,-0.65,0.32,0.65,0.21,-0.21,0.31,0.14,-9.99,0.19,-0.61,0.0,0.0,0.0,-9.68,1.43,-0.53
1738244470.2780502,27141,0,0,,0.0,-0.65,0.32,0.65,0.21,-0.1,0.29,0.12,-9.73,0.98,-0.85,0.0,0.0,0.0,-9.68,1.44,-0.56
1738244470.2941296,27142,0,0,,0.0,-0.65,0.32,0.65,0.21,-0.1,0.33,0.07,-9.88,1.15,-0.43,0.0,0.0,0.0,-9.67,1.46,-0.61
1738244470.3111513,27143,0,0,,0.0,-0.66,0.33,0.65,0.21,-0.09,0.34,0.04,-9.55,1.43,-0.6,0.0,0.0,0.0,-9.67,1.46,-0.68
1738244470.3280685,27144,0,0,,0.0,-0.66,0.33,0.65,0.21,-0.09,0.37,-0.03,-9.53,1.26,-0.49,0.0,0.0,0.0,-9.67,1.46,-0.71
1738244470.3491466,27145,0,0,,0.0,-0.66,0.33,0.64,0.21,-0.02,0.38,-0.06,-9.35,1.23,-1.26,0.0,0.0,0.0,-9.66,1.45,-0.78
1738244470.3665965,27146,0,0,,0.0,-0.66,0.33,0.64,0.21,0.02,0.39,-0.1,-9.68,1.46,-0.61,0.0,0.0,0.0,-9.66,1.43,-0.85
1738244470.381029,27147,0,0,,0.0,-0.66,0.33,0.64,0.21,0.02,0.38,-0.09,-9.68,0.99,-0.87,0.0,0.0,0.0,-9.65,1.41,-0.93
1738244470.3994699,27148,0,0,,0.0,-0.67,0.33,0.64,0.21,0.04,0.38,-0.12,-9.66,1.25,-0.8,0.0,0.0,0.0,-9.65,1.4,-0.96
1738244470.4170759,27149,0,0,,0.0,-0.67,0.33,0.64,0.21,0.04,0.35,-0.1,-9.71,0.77,-0.92,0.0,0.0,0.0,-9.65,1.37,-1.03
1738244470.431636,27150,0,0,,0.0,-0.67,0.33,0.63,0.21,0.03,0.34,-0.07,-9.76,0.99,-0.94,0.0,0.0,0.0,-9.65,1.35,-1.08
1738244470.4501827,27151,0,0,,0.0,-0.67,0.33,0.63,0.2,-0.04,0.31,0.02,-9.57,0.66,-1.64,0.0,0.0,0.0,-9.64,1.36,-1.14
1738244470.4672012,27152,0,0,,0.0,-0.67,0.33,0.63,0.2,-0.06,0.29,0.02,-9.56,0.76,-1.49,0.0,0.0,0.0,-9.64,1.36,-1.16
1738244470.4819763,27153,0,0,,0.0,-0.67,0.33,0.63,0.2,-0.12,0.31,0.04,-9.69,1.25,-0.9,0.0,0.0,0.0,-9.63,1.37,-1.22
1738244470.5000782,27154,0,0,,0.0,-0.68,0.33,0.63,0.2,-0.15,0.29,0.04,-9.74,1.24,-0.91,0.0,0.0,0.0,-9.62,1.38,-1.24
1738244470.5176857,27155,0,0,,0.0,-0.68,0.33,0.63,0.2,-0.18,0.28,0.07,-9.74,1.32,-0.82,0.0,0.0,0.0,-9.61,1.39,-1.29
1738244470.5323994,27156,0,0,,0.0,-0.68,0.33,0.63,0.2,-0.18,0.28,0.04,-9.48,0.94,-1.71,0.0,0.0,0.0,-9.61,1.4,-1.34
1738244470.5504892,27157,0,0,,0.0,-0.68,0.33,0.63,0.19,-0.16,0.29,-0.06,-9.95,0.99,-0.71,0.0,0.0,0.0,-9.6,1.39,-1.39
1738244470.567091,27158,0,0,,0.0,-0.68,0.33,0.62,0.19,-0.12,0.28,-0.06,-9.63,0.65,-1.48,0.0,0.0,0.0,-9.6,1.39,-1.41
1738244470.5823085,27159,0,0,,0.0,-0.69,0.33,0.62,0.19,-0.06,0.3,-0.08,-9.73,0.91,-1.32,0.0,0.0,0.0,-9.59,1.38,-1.47
1738244470.6000578,27160,0,0,,0.0,-0.69,0.32,0.62,0.19,-0.05,0.29,-0.08,-9.59,0.98,-1.55,0.0,0.0,0.0,-9.59,1.37,-1.49
1738244470.6182973,27161,0,0,,0.0,-0.69,0.32,0.62,0.19,-0.02,0.29,-0.09,-9.72,1.17,-0.99,0.0,0.0,0.0,-9.58,1.35,-1.54
1738244470.6328442,27162,0,0,,0.0,-0.69,0.32,0.62,0.19,-0.01,0.29,-0.09,-9.76,1.21,-0.91,0.0,0.0,0.0,-9.58,1.32,-1.59
1738244470.6500351,27163,0,0,,0.0,-0.69,0.32,0.62,0.19,0.03,0.31,-0.11,-9.4,1.14,-1.68,0.0,0.0,0.0,-9.57,1.3,-1.65
1738244470.6672833,27164,0,0,,0.0,-0.69,0.32,0.61,0.19,0.06,0.35,-0.14,-9.64,1.18,-1.49,0.0,0.0,0.0,-9.57,1.29,-1.69
1738244470.682088,27165,0,0,,0.0,-0.7,0.32,0.61,0.19,0.05,0.35,-0.14,-9.56,1.16,-1.62,0.0,0.0,0.0,-9.56,1.26,-1.75
1738244470.6992385,27166,0,0,,0.0,-0.7,0.32,0.61,0.19,0.04,0.37,-0.15,-9.69,0.89,-1.44,0.0,0.0,0.0,-9.55,1.24,-1.79
1738244470.7177293,27167,0,0,,0.0,-0.7,0.32,0.61,0.19,0.08,0.36,-0.15,-9.38,0.84,-2.37,0.0,0.0,0.0,-9.55,1.21,-1.85
1738244470.7320592,27168,0,0,,0.0,-0.7,0.32,0.6,0.19,0.09,0.39,-0.17,-9.39,0.78,-2.16,0.0,0.0,0.0,-9.54,1.17,-1.93
1738244470.7500968,27169,0,0,,0.0,-0.7,0.32,0.6,0.19,0.13,0.37,-0.16,-9.36,0.64,-2.42,0.0,0.0,0.0,-9.53,1.16,-1.96
1738244470.7662694,27170,0,0,,0.0,-0.71,0.32,0.6,0.19,0.13,0.39,-0.18,-9.45,0.75,-1.84,0.0,0.0,0.0,-9.52,1.12,-2.04
1738244470.7819343,27171,0,0,,0.0,-0.71,0.32,0.59,0.2,0.15,0.39,-0.18,-9.4,0.65,-1.92,0.0,0.0,0.0,-9.51,1.07,-2.11
1738244470.7993188,27172,0,0,,0.0,-0.71,0.32,0.59,0.2,0.14,0.4,-0.19,-9.48,0.81,-1.78,0.0,0.0,0.0,-9.5,1.05,-2.15
1738244470.8173323,27173,0,0,,0.0,-0.71,0.33,0.59,0.2,0.13,0.42,-0.2,-9.72,0.6,-1.71,0.0,0.0,0.0,-9.49,1.01,-2.23
1738244470.8322847,27174,0,0,,0.0,-0.72,0.32,0.59,0.2,0.14,0.42,-0.21,-9.55,0.48,-2.67,0.0,0.0,0.0,-9.48,0.96,-2.31
1738244470.8498595,27175,0,0,,0.0,-0.72,0.32,0.58,0.2,0.13,0.44,-0.22,-9.83,0.45,-1.99,0.0,0.0,0.0,-9.47,0.94,-2.35
1738244470.865326,27176,0,0,,0.0,-0.72,0.32,0.58,0.2,0.16,0.44,-0.24,-9.7,0.55,-2.18,0.0,0.0,0.0,-9.45,0.89,-2.43
1738244470.881595,27177,0,0,,0.0,-0.72,0.32,0.58,0.2,0.16,0.45,-0.24,-9.76,0.4,-2.16,0.0,0.0,0.0,-9.43,0.83,-2.52
1738244470.8987613,27178,0,0,,0.0,-0.73,0.32,0.57,0.2,0.2,0.46,-0.26,-9.76,0.7,-2.07,0.0,0.0,0.0,-9.43,0.8,-2.55
1738244470.9152138,27179,0,0,,0.0,-0.73,0.32,0.57,0.2,0.25,0.5,-0.28,-9.74,0.68,-2.15,0.0,0.0,0.0,-9.42,0.73,-2.62
1738244470.9309494,27180,0,0,,0.0,-0.73,0.32,0.57,0.2,0.26,0.5,-0.28,-9.55,0.49,-2.63,0.0,0.0,0.0,-9.39,0.66,-2.71
1738244470.9488432,27181,0,0,,0.0,-0.73,0.32,0.56,0.2,0.29,0.56,-0.34,-10.13,0.6,-2.66,0.0,0.0,0.0,-9.38,0.62,-2.77
1738244470.9643805,27182,0,0,,0.0,-0.74,0.32,0.56,0.21,0.27,0.6,-0.4,-10.33,0.64,-2.72,0.0,0.0,0.0,-9.35,0.54,-2.88
1738244470.9810483,27183,0,0,,0.0,-0.74,0.32,0.55,0.21,0.27,0.62,-0.42,-10.44,0.36,-2.04,0.0,0.0,0.0,-9.32,0.45,-2.99
1738244470.9984193,27184,0,0,,0.0,-0.74,0.32,0.55,0.21,0.33,0.66,-0.44,-9.84,-0.14,-2.85,0.0,0.0,0.0,-9.3,0.4,-3.05
1738244471.014699,27185,0,0,,0.0,-0.75,0.32,0.54,0.21,0.31,0.69,-0.5,-9.95,0.03,-2.95,0.0,0.0,0.0,-9.27,0.29,-3.18
1738244471.0314934,27186,0,0,,0.0,-0.75,0.32,0.53,0.21,0.25,0.73,-0.52,-10.18,-0.14,-3.2,0.0,0.0,0.0,-9.22,0.18,-3.31
1738244471.0488858,27187,0,0,,0.0,-0.76,0.32,0.53,0.21,0.19,0.76,-0.59,-10.0,-0.33,-2.6,0.0,0.0,0.0,-9.2,0.12,-3.38
1738244471.0642576,27188,0,0,,0.0,-0.76,0.31,0.52,0.22,0.26,0.79,-0.61,-9.8,-0.56,-2.6,0.0,0.0,0.0,-9.15,0.0,-3.52
1738244471.0812204,27189,0,0,,0.0,-0.77,0.31,0.52,0.22,0.3,0.81,-0.64,-9.79,-0.27,-2.44,0.0,0.0,0.0,-9.09,-0.13,-3.66
1738244471.0991468,27190,0,0,,0.0,-0.77,0.31,0.51,0.22,0.29,0.85,-0.67,-9.62,-0.45,-2.58,0.0,0.0,0.0,-9.06,-0.2,-3.74
1738244471.114676,27191,0,0,,0.0,-0.78,0.31,0.5,0.22,0.29,0.9,-0.71,-9.15,-0.53,-3.28,0.0,0.0,0.0,-8.99,-0.34,-3.89
1738244471.1319914,27192,0,0,,0.0,-0.78,0.31,0.49,0.23,0.3,0.94,-0.73,-9.26,-0.68,-2.98,0.0,0.0,0.0,-8.91,-0.5,-4.05
1738244471.149105,27193,0,0,,0.0,-0.79,0.31,0.49,0.23,0.3,1.02,-0.78,-9.02,-0.33,-3.09,0.0,0.0,0.0,-8.86,-0.58,-4.14
1738244471.1645079,27194,0,0,,0.0,-0.79,0.3,0.48,0.23,0.26,1.13,-0.82,-8.91,-0.46,-2.95,0.0,0.0,0.0,-8.76,-0.74,-4.32
1738244471.1819155,27195,0,0,,0.0,-0.8,0.3,0.46,0.23,0.24,1.18,-0.83,-8.81,-0.43,-3.32,0.0,0.0,0.0,-8.64,-0.9,-4.53
1738244471.199053,27196,0,0,,0.0,-0.81,0.3,0.46,0.23,0.24,1.36,-0.84,-9.04,-0.74,-3.18,0.0,0.0,0.0,-8.58,-0.98,-4.64
1738244471.2153625,27197,0,0,,0.0,-0.81,0.3,0.44,0.23,0.27,1.53,-0.8,-8.85,-0.68,-3.9,0.0,0.0,0.0,-8.42,-1.14,-4.88
1738244471.2322507,27198,0,0,,0.0,-0.82,0.29,0.43,0.23,0.29,1.66,-0.78,-9.99,-0.35,-3.38,0.0,0.0,0.0,-8.24,-1.29,-5.15
1738244471.2500777,27199,0,0,,0.0,-0.83,0.29,0.42,0.23,0.36,1.89,-0.69,-10.33,-0.14,-3.4,0.0,0.0,0.0,-8.14,-1.36,-5.29
1738244471.2651737,27200,0,0,,0.0,-0.84,0.3,0.4,0.23,0.37,2.08,-0.57,-11.63,-0.3,-3.54,0.0,0.0,0.0,-7.9,-1.49,-5.6
1738244471.2822552,27201,0,0,,0.0,-0.84,0.3,0.38,0.23,0.38,2.16,-0.52,-11.76,-0.56,-3.84,0.0,0.0,0.0,-7.64,-1.61,-5.92
1738244471.2997744,27202,0,0,,0.0,-0.85,0.3,0.37,0.23,0.45,2.28,-0.43,-12.67,-0.8,-4.05,0.0,0.0,0.0,-7.5,-1.67,-6.08
1738244471.3159282,27203,0,0,,0.0,-0.86,0.3,0.35,0.23,0.47,2.22,-0.33,-12.16,-0.97,-4.05,0.0,0.0,0.0,-7.22,-1.78,-6.38
1738244471.332755,27204,0,0,,0.0,-0.86,0.31,0.33,0.23,0.42,2.13,-0.31,-10.61,-0.34,-3.32,0.0,0.0,0.0,-6.95,-1.87,-6.65
1738244471.3504078,27205,0,0,,0.0,-0.87,0.31,0.32,0.22,0.08,1.78,-0.26,-10.01,-0.56,-3.35,0.0,0.0,0.0,-6.83,-1.89,-6.77
1738244471.3662457,27206,0,0,,0.0,-0.87,0.31,0.31,0.22,-0.43,1.32,-0.27,-8.13,-1.25,-4.2,0.0,0.0,0.0,-6.63,-1.88,-6.97
1738244471.3821108,27207,0,0,,0.0,-0.88,0.3,0.3,0.21,-0.66,1.07,-0.26,-7.27,-1.69,-4.24,0.0,0.0,0.0,-6.49,-1.81,-7.11
1738244471.3998268,27208,0,0,,0.0,-0.88,0.3,0.3,0.2,-0.84,0.56,-0.19,-6.47,-2.5,-5.86,0.0,0.0,0.0,-6.45,-1.77,-7.16
1738244471.4161327,27209,0,0,,0.0,-0.88,0.3,0.3,0.2,-0.81,0.21,-0.28,-6.09,-2.28,-7.34,0.0,0.0,0.0,-6.4,-1.68,-7.22
1738244471.4329093,27210,0,0,,0.0,-0.89,0.29,0.3,0.2,-0.71,0.11,-0.32,-5.61,-1.61,-9.0,0.0,0.0,0.0,-6.38,-1.63,-7.26
1738244471.450138,27211,0,0,,0.0,-0.89,0.29,0.3,0.19,-0.42,0.04,-0.34,-5.53,-1.37,-9.05,0.0,0.0,0.0,-6.37,-1.62,-7.26
1738244471.4664075,27212,0,0,,0.0,-0.89,0.29,0.3,0.19,-0.0,-0.01,-0.37,-4.92,-1.51,-7.55,0.0,0.0,0.0,-6.36,-1.65,-7.27
1738244471.4832945,27213,0,0,,0.0,-0.89,0.29,0.3,0.2,0.2,-0.08,-0.37,-4.63,-1.38,-6.02,0.0,0.0,0.0,-6.37,-1.74,-7.24
1738244471.500305,27214,0,0,,0.0,-0.89,0.29,0.3,0.2,0.51,-0.31,-0.27,-4.38,-1.4,-5.93,0.0,0.0,0.0,-6.38,-1.79,-7.22
1738244471.5174363,27215,0,0,,0.0,-0.88,0.28,0.31,0.21,0.5,-0.61,-0.21,-4.14,-1.15,-5.82,0.0,0.0,0.0,-6.45,-1.89,-7.13
1738244471.5336869,27216,0,0,,0.0,-0.88,0.28,0.31,0.21,0.32,-0.9,-0.08,-4.34,-1.16,-4.92,0.0,0.0,0.0,-6.56,-1.95,-7.01
1738244471.5507083,27217,0,0,,0.0,-0.88,0.28,0.32,0.22,0.32,-1.06,0.0,-4.51,-1.2,-4.59,0.0,0.0,0.0,-6.63,-1.97,-6.94
1738244471.567069,27218,0,0,,0.0,-0.87,0.28,0.33,0.22,0.45,-1.36,0.2,-4.73,-1.25,-4.59,0.0,0.0,0.0,-6.81,-2.01,-6.75
1738244471.5834565,27219,0,0,,0.0,-0.87,0.28,0.34,0.23,0.52,-1.65,0.37,-5.54,-1.54,-4.16,0.0,0.0,0.0,-7.02,-2.03,-6.52
1738244471.600712,27220,0,0,,0.0,-0.86,0.28,0.35,0.24,0.55,-1.79,0.44,-5.95,-1.55,-4.02,0.0,0.0,0.0,-7.15,-2.03,-6.39
1738244471.6172493,27221,0,0,,0.0,-0.85,0.29,0.36,0.24,0.6,-2.06,0.58,-6.86,-1.73,-4.13,0.0,0.0,0.0,-7.41,-2.03,-6.08
1738244471.634132,27222,0,0,,0.0,-0.84,0.29,0.38,0.25,0.65,-2.28,0.6,-7.07,-1.64,-4.58,0.0,0.0,0.0,-7.69,-2.01,-5.73
1738244471.6508968,27223,0,0,,0.0,-0.83,0.29,0.4,0.26,0.59,-2.37,0.72,-7.25,-1.0,-4.36,0.0,0.0,0.0,-7.83,-1.99,-5.54
1738244471.6666884,27224,0,0,,0.0,-0.82,0.29,0.41,0.26,0.21,-2.54,0.96,-7.51,-0.84,-4.59,0.0,0.0,0.0,-8.12,-1.89,-5.14
1738244471.6836343,27225,0,0,,0.0,-0.81,0.29,0.43,0.26,-0.26,-2.66,1.12,-8.1,-0.81,-4.76,0.0,0.0,0.0,-8.41,-1.7,-4.73
1738244471.7010217,27226,0,0,,0.0,-0.8,0.29,0.46,0.26,-0.49,-2.72,1.19,-8.28,-0.84,-4.83,0.0,0.0,0.0,-8.55,-1.58,-4.51
1738244471.7174413,27227,0,0,,0.0,-0.79,0.29,0.47,0.26,-0.82,-2.79,1.28,-8.89,-1.64,-4.92,0.0,0.0,0.0,-8.82,-1.3,-4.06
1738244471.7336824,27228,0,0,,0.0,-0.77,0.29,0.5,0.26,-0.78,-2.86,1.29,-9.45,-2.16,-4.74,0.0,0.0,0.0,-9.06,-1.02,-3.59
1738244471.7516966,27229,0,0,,0.0,-0.76,0.29,0.53,0.25,-0.66,-2.9,1.29,-10.14,-2.6,-4.48,0.0,0.0,0.0,-9.17,-0.88,-3.34
1738244471.7672641,27230,0,0,,0.0,-0.75,0.29,0.54,0.25,-0.31,-2.99,1.32,-10.68,-2.86,-4.38,0.0,0.0,0.0,-9.37,-0.62,-2.81
1738244471.783839,27231,0,0,,0.0,-0.73,0.29,0.57,0.25,-0.02,-3.05,1.34,-11.32,-2.46,-4.12,0.0,0.0,0.0,-9.53,-0.37,-2.26
1738244471.8008747,27232,0,0,,0.0,-0.71,0.29,0.59,0.26,0.06,-3.05,1.35,-11.52,-2.22,-4.21,0.0,0.0,0.0,-9.6,-0.25,-1.98
1738244471.8176746,27233,0,0,,0.0,-0.7,0.3,0.6,0.26,0.11,-3.0,1.35,-11.57,-1.57,-4.34,0.0,0.0,0.0,-9.7,0.0,-1.41
1738244471.833923,27234,0,0,,0.0,-0.68,0.3,0.62,0.26,0.09,-2.78,1.31,-11.23,-1.25,-4.7,0.0,0.0,0.0,-9.76,0.24,-0.88
1738244471.8515148,27235,0,0,,0.0,-0.66,0.3,0.64,0.26,0.06,-2.62,1.28,-11.18,-1.03,-4.68,0.0,0.0,0.0,-9.78,0.47,-0.4
1738244471.8668568,27236,0,0,,0.0,-0.65,0.3,0.65,0.26,-0.03,-2.28,1.15,-11.09,-1.26,-4.42,0.0,0.0,0.0,-9.78,0.58,-0.18
1738244471.8835604,27237,0,0,,0.0,-0.63,0.3,0.67,0.26,-0.05,-1.92,0.97,-10.75,-1.5,-3.99,0.0,0.0,0.0,-9.77,0.78,0.19
1738244471.9013062,27238,0,0,,0.0,-0.62,0.3,0.68,0.25,-0.04,-1.76,0.89,-10.39,-1.51,-3.89,0.0,0.0,0.0,-9.76,0.86,0.36
1738244471.9170907,27239,0,0,,0.0,-0.61,0.3,0.68,0.25,-0.03,-1.41,0.72,-9.71,-1.19,-4.0,0.0,0.0,0.0,-9.73,1.0,0.64
1738244471.9341624,27240,0,0,,0.0,-0.6,0.3,0.69,0.25,-0.21,-0.99,0.56,-8.46,-0.83,-4.28,0.0,0.0,0.0,-9.7,1.11,0.85
1738244471.951182,27241,0,0,,0.0,-0.6,0.3,0.7,0.25,-0.37,-0.78,0.48,-8.34,-0.81,-4.26,0.0,0.0,0.0,-9.69,1.16,0.93
1738244471.9667222,27242,0,0,,0.0,-0.6,0.3,0.7,0.25,-0.63,-0.36,0.31,-7.93,-1.66,-4.84,0.0,0.0,0.0,-9.67,1.21,1.03
1738244471.983908,27243,0,0,,0.0,-0.6,0.3,0.7,0.24,-0.63,-0.08,0.21,-8.04,-2.94,-5.33,0.0,0.0,0.0,-9.67,1.22,1.04
1738244472.0014443,27244,0,0,,0.0,-0.6,0.29,0.7,0.24,-0.6,0.43,-0.16,-9.6,-2.66,-1.84,0.0,0.0,0.0,-9.67,1.2,1.0
1738244472.017243,27245,0,0,,0.0,-0.61,0.29,0.7,0.24,-0.46,0.5,-0.32,-9.12,-0.37,-0.77,0.0,0.0,0.0,-9.69,1.14,0.92
1738244472.033887,27246,0,0,,0.0,-0.61,0.29,0.7,0.24,-0.18,0.44,-0.15,-12.55,4.8,8.31,0.0,0.0,0.0,-9.7,1.09,0.84
1738244472.0507736,27247,0,0,,0.0,-0.61,0.29,0.7,0.24,0.23,0.16,0.15,-14.68,7.78,11.81,0.0,0.0,0.0,-9.7,1.11,0.82
1738244472.0658078,27248,0,0,,0.0,-0.61,0.29,0.7,0.23,-0.47,-0.39,0.49,-8.72,0.6,-1.61,0.0,0.0,0.0,-9.69,1.2,0.88
1738244472.0830934,27249,0,0,,0.0,-0.61,0.29,0.7,0.23,-0.8,-0.17,0.33,-9.62,-3.18,-0.84,0.0,0.0,0.0,-9.68,1.23,0.9
1738244472.10074,27250,0,0,,0.0,-0.61,0.29,0.7,0.23,-0.19,0.24,0.11,-11.34,-1.73,1.0,0.0,0.0,0.0,-9.68,1.24,0.88
1738244472.1161196,27251,0,0,,0.0,-0.61,0.29,0.7,0.23,0.02,0.31,0.11,-10.32,-0.55,1.34,0.0,0.0,0.0,-9.68,1.26,0.83
1738244472.133502,27252,0,0,,0.0,-0.61,0.29,0.7,0.23,0.02,0.31,0.1,-9.34,1.25,1.42,0.0,0.0,0.0,-9.69,1.28,0.77
1738244472.1510167,27253,0,0,,0.0,-0.61,0.29,0.7,0.22,-0.03,0.3,0.15,-9.57,1.54,1.39,0.0,0.0,0.0,-9.69,1.3,0.74
1738244472.164959,27254,0,0,,0.0,-0.61,0.3,0.7,0.22,0.02,0.28,0.17,-9.43,1.32,0.07,0.0,0.0,0.0,-9.69,1.33,0.69
1738244472.1832597,27255,0,0,,0.0,-0.61,0.3,0.69,0.23,0.12,0.26,0.18,-9.8,0.54,0.3,0.0,0.0,0.0,-9.68,1.37,0.64
1738244472.200102,27256,0,0,,0.0,-0.61,0.3,0.69,0.23,0.38,0.21,0.19,-9.86,0.25,0.11,0.0,0.0,0.0,-9.68,1.39,0.61
1738244472.2155569,27257,0,0,,0.0,-0.61,0.31,0.69,0.23,0.58,0.22,0.16,-9.48,0.77,0.26,0.0,0.0,0.0,-9.68,1.42,0.56
1738244472.2336118,27258,0,0,,0.0,-0.61,0.31,0.69,0.23,0.56,0.27,0.13,-9.66,1.42,1.09,0.0,0.0,0.0,-9.68,1.45,0.49
1738244472.250648,27259,0,0,,0.0,-0.61,0.32,0.68,0.23,0.46,0.34,0.08,-9.53,1.44,0.95,0.0,0.0,0.0,-9.68,1.46,0.45
1738244472.2659051,27260,0,0,,0.0,-0.62,0.32,0.68,0.23,0.35,0.4,0.05,-9.4,1.32,0.82,0.0,0.0,0.0,-9.68,1.47,0.37
1738244472.2835777,27261,0,0,,0.0,-0.62,0.32,0.68,0.23,0.36,0.41,0.05,-9.33,1.23,0.22,0.0,0.0,0.0,-9.68,1.48,0.28
1738244472.3010025,27262,0,0,,0.0,-0.62,0.33,0.67,0.23,0.47,0.45,0.04,-9.66,1.25,0.89,0.0,0.0,0.0,-9.68,1.49,0.23
1738244472.315816,27263,0,0,,0.0,-0.62,0.33,0.67,0.24,0.57,0.49,0.03,-9.65,0.8,0.26,0.0,0.0,0.0,-9.69,1.5,0.12
1738244472.3334904,27264,0,0,,0.0,-0.62,0.34,0.67,0.24,0.65,0.51,0.03,-9.73,1.29,0.25,0.0,0.0,0.0,-9.68,1.5,0.01
1738244472.3506763,27265,0,0,,0.0,-0.62,0.34,0.66,0.24,0.55,0.5,0.04,-9.65,1.5,-0.19,0.0,0.0,0.0,-9.68,1.51,-0.04
1738244472.3660882,27266,0,0,,0.0,-0.62,0.34,0.66,0.24,0.28,0.46,0.07,-9.8,1.96,-0.1,0.0,0.0,0.0,-9.68,1.52,-0.14
1738244472.383639,27267,0,0,,0.0,-0.63,0.35,0.66,0.24,0.07,0.43,0.08,-9.91,1.63,-0.25,0.0,0.0,0.0,-9.68,1.54,-0.21
1738244472.4009323,27268,0,0,,0.0,-0.63,0.34,0.66,0.23,-0.17,0.34,0.11,-9.66,1.47,-0.97,0.0,0.0,0.0,-9.68,1.55,-0.24
1738244472.4166114,27269,0,0,,0.0,-0.63,0.34,0.66,0.23,-0.29,0.28,0.09,-9.99,1.1,-0.5,0.0,0.0,0.0,-9.67,1.57,-0.29
1738244472.4336247,27270,0,0,,0.0,-0.63,0.34,0.66,0.23,-0.29,0.25,0.09,-9.83,0.64,-0.51,0.0,0.0,0.0,-9.67,1.58,-0.33
1738244472.4524393,27271,0,0,,0.0,-0.63,0.34,0.66,0.23,-0.17,0.23,0.09,-10.04,0.96,0.09,0.0,0.0,0.0,-9.66,1.6,-0.37
1738244472.468973,27272,0,0,,0.0,-0.63,0.34,0.65,0.23,-0.1,0.23,0.06,-9.6,1.34,-0.66,0.0,0.0,0.0,-9.66,1.61,-0.39
1738244472.4849763,27273,0,0,,0.0,-0.64,0.34,0.65,0.22,-0.08,0.26,0.01,-9.41,1.37,-0.73,0.0,0.0,0.0,-9.66,1.61,-0.43
1738244472.5018182,27274,0,0,,0.0,-0.64,0.34,0.65,0.22,-0.08,0.3,-0.02,-9.57,1.12,-0.6,0.0,0.0,0.0,-9.66,1.61,-0.49
1738244472.5170867,27275,0,0,,0.0,-0.64,0.35,0.65,0.22,0.05,0.3,-0.05,-9.6,1.09,-0.38,0.0,0.0,0.0,-9.66,1.6,-0.52
1738244472.5339396,27276,0,0,,0.0,-0.64,0.35,0.65,0.22,0.16,0.29,-0.06,-9.64,1.07,-0.53,0.0,0.0,0.0,-9.66,1.57,-0.57
1738244472.5516784,27277,0,0,,0.0,-0.64,0.35,0.65,0.23,0.21,0.28,-0.06,-9.76,1.25,-0.29,0.0,0.0,0.0,-9.66,1.56,-0.6
1738244472.566461,27278,0,0,,0.0,-0.64,0.35,0.64,0.23,0.19,0.26,-0.05,-9.88,1.24,-0.14,0.0,0.0,0.0,-9.65,1.55,-0.66
1738244472.583872,27279,0,0,,0.0,-0.64,0.35,0.64,0.23,0.18,0.23,-0.04,-9.68,0.82,-1.12,0.0,0.0,0.0,-9.65,1.54,-0.7
1738244472.6016757,27280,0,0,,0.0,-0.64,0.35,0.64,0.23,0.09,0.23,-0.04,-9.93,1.07,-0.62,0.0,0.0,0.0,-9.65,1.54,-0.73
1738244472.6167047,27281,0,0,,0.0,-0.65,0.35,0.64,0.23,0.03,0.19,-0.02,-9.76,1.07,-0.89,0.0,0.0,0.0,-9.65,1.53,-0.76
1738244472.634014,27282,0,0,,0.0,-0.65,0.35,0.64,0.23,0.02,0.17,-0.02,-9.72,1.23,-0.4,0.0,0.0,0.0,-9.65,1.53,-0.8
1738244472.651849,27283,0,0,,0.0,-0.65,0.35,0.64,0.23,-0.01,0.17,-0.02,-9.49,1.38,-0.89,0.0,0.0,0.0,-9.65,1.52,-0.81
1738244472.6667802,27284,0,0,,0.0,-0.65,0.35,0.64,0.22,-0.03,0.19,-0.04,-9.51,1.5,-0.62,0.0,0.0,0.0,-9.65,1.52,-0.85
1738244472.6844044,27285,0,0,,0.0,-0.65,0.35,0.64,0.22,-0.09,0.21,-0.04,-9.51,1.14,-0.84,0.0,0.0,0.0,-9.64,1.51,-0.89
1738244472.701783,27286,0,0,,0.0,-0.65,0.35,0.63,0.22,-0.08,0.25,-0.08,-9.54,1.41,-0.67,0.0,0.0,0.0,-9.64,1.5,-0.91
1738244472.7166412,27287,0,0,,0.0,-0.65,0.35,0.63,0.22,-0.13,0.27,-0.1,-9.49,1.37,-0.83,0.0,0.0,0.0,-9.64,1.49,-0.96
1738244472.7347507,27288,0,0,,0.0,-0.66,0.35,0.63,0.22,-0.16,0.29,-0.11,-9.35,2.0,-0.99,0.0,0.0,0.0,-9.64,1.47,-1.0
1738244472.7519398,27289,0,0,,0.0,-0.66,0.34,0.63,0.22,-0.37,0.32,-0.15,-9.36,1.5,-1.16,0.0,0.0,0.0,-9.64,1.46,-1.03
1738244472.7668705,27290,0,0,,0.0,-0.66,0.34,0.63,0.22,-0.57,0.34,-0.18,-9.36,1.44,-1.29,0.0,0.0,0.0,-9.63,1.44,-1.08
1738244472.784631,27291,0,0,,0.0,-0.67,0.34,0.63,0.21,-0.62,0.37,-0.18,-9.61,1.28,-0.77,0.0,0.0,0.0,-9.63,1.41,-1.13
1738244472.801704,27292,0,0,,0.0,-0.67,0.34,0.63,0.21,-0.64,0.36,-0.05,-9.54,1.4,-0.74,0.0,0.0,0.0,-9.63,1.42,-1.15
1738244472.817126,27293,0,0,,0.0,-0.67,0.33,0.63,0.2,-0.58,0.41,-0.07,-9.57,1.32,-0.52,0.0,0.0,0.0,-9.62,1.42,-1.21
1738244472.8342402,27294,0,0,,0.0,-0.68,0.33,0.63,0.2,-0.56,0.42,-0.08,-9.49,1.04,-0.84,0.0,0.0,0.0,-9.61,1.42,-1.27
1738244472.852424,27295,0,0,,0.0,-0.68,0.33,0.63,0.2,-0.51,0.45,-0.12,-9.79,1.45,-0.51,0.0,0.0,0.0,-9.61,1.41,-1.31
1738244472.8668106,27296,0,0,,0.0,-0.68,0.33,0.63,0.19,-0.4,0.5,-0.24,-9.62,0.52,-1.32,0.0,0.0,0.0,-9.6,1.39,-1.39
1738244472.8850574,27297,0,0,,0.0,-0.69,0.32,0.62,0.19,-0.23,0.51,-0.27,-9.72,0.39,-1.37,0.0,0.0,0.0,-9.59,1.34,-1.48
1738244472.901778,27298,0,0,,0.0,-0.69,0.32,0.62,0.19,-0.16,0.52,-0.26,-9.75,0.4,-1.64,0.0,0.0,0.0,-9.59,1.32,-1.52
1738244472.917078,27299,0,0,,0.0,-0.69,0.32,0.62,0.19,-0.04,0.53,-0.27,-9.83,0.57,-1.32,0.0,0.0,0.0,-9.58,1.27,-1.62
1738244472.9349797,27300,0,0,,0.0,-0.7,0.32,0.61,0.19,-0.03,0.53,-0.27,-9.71,0.93,-1.34,0.0,0.0,0.0,-9.57,1.23,-1.72
1738244472.9522295,27301,0,0,,0.0,-0.7,0.32,0.61,0.19,-0.01,0.55,-0.28,-9.49,0.7,-1.78,0.0,0.0,0.0,-9.56,1.2,-1.77
1738244472.966861,27302,0,0,,0.0,-0.7,0.32,0.61,0.19,0.03,0.57,-0.28,-9.71,0.52,-1.67,0.0,0.0,0.0,-9.55,1.15,-1.87
1738244472.9852533,27303,0,0,,0.0,-0.71,0.32,0.6,0.19,0.07,0.56,-0.28,-9.44,0.75,-2.13,0.0,0.0,0.0,-9.54,1.09,-1.98
1738244473.0025454,27304,0,0,,0.0,-0.71,0.32,0.6,0.19,0.11,0.57,-0.28,-9.54,0.62,-1.77,0.0,0.0,0.0,-9.53,1.06,-2.03
1738244473.0178528,27305,0,0,,0.0,-0.71,0.32,0.59,0.19,0.17,0.58,-0.3,-9.11,0.59,-2.37,0.0,0.0,0.0,-9.51,1.0,-2.14
1738244473.0349383,27306,0,0,,0.0,-0.72,0.32,0.59,0.2,0.22,0.63,-0.32,-9.46,0.89,-1.85,0.0,0.0,0.0,-9.49,0.93,-2.26
1738244473.052857,27307,0,0,,0.0,-0.72,0.32,0.58,0.2,0.22,0.64,-0.32,-9.41,0.35,-2.64,0.0,0.0,0.0,-9.48,0.9,-2.32
1738244473.0675075,27308,0,0,,0.0,-0.72,0.32,0.58,0.2,0.22,0.68,-0.35,-9.63,0.34,-2.35,0.0,0.0,0.0,-9.45,0.83,-2.45
1738244473.0852056,27309,0,0,,0.0,-0.73,0.32,0.57,0.2,0.25,0.67,-0.37,-9.53,0.54,-2.14,0.0,0.0,0.0,-9.43,0.75,-2.58
1738244473.102095,27310,0,0,,0.0,-0.73,0.32,0.57,0.2,0.24,0.66,-0.39,-9.83,1.63,-2.75,0.0,0.0,0.0,-9.41,0.71,-2.64
1738244473.117551,27311,0,0,,0.0,-0.73,0.32,0.56,0.2,0.09,0.67,-0.45,-10.48,0.07,-2.19,0.0,0.0,0.0,-9.38,0.62,-2.76
1738244473.1353016,27312,0,0,,0.0,-0.74,0.32,0.56,0.2,0.18,0.64,-0.49,-9.46,-0.01,-3.16,0.0,0.0,0.0,-9.35,0.53,-2.88
1738244473.1521506,27313,0,0,,0.0,-0.74,0.32,0.55,0.21,0.31,0.68,-0.47,-10.34,0.19,-2.44,0.0,0.0,0.0,-9.34,0.47,-2.94
1738244473.1682427,27314,0,0,,0.0,-0.75,0.32,0.55,0.21,0.42,0.7,-0.47,-10.35,0.19,-2.74,0.0,0.0,0.0,-9.3,0.36,-3.07
1738244473.1855824,27315,0,0,,0.0,-0.75,0.32,0.54,0.21,0.39,0.7,-0.46,-10.32,-0.76,-2.47,0.0,0.0,0.0,-9.26,0.26,-3.2
1738244473.202328,27316,0,0,,0.0,-0.75,0.32,0.53,0.21,0.39,0.69,-0.46,-10.01,-0.74,-2.91,0.0,0.0,0.0,-9.24,0.2,-3.27
1738244473.2176564,27317,0,0,,0.0,-0.76,0.32,0.53,0.22,0.45,0.7,-0.47,-9.77,-0.55,-2.86,0.0,0.0,0.0,-9.19,0.09,-3.39
1738244473.2357755,27318,0,0,,0.0,-0.76,0.32,0.52,0.22,0.47,0.72,-0.51,-9.54,-0.56,-3.26,0.0,0.0,0.0,-9.15,-0.02,-3.52
1738244473.25244,27319,0,0,,0.0,-0.77,0.32,0.51,0.22,0.47,0.76,-0.52,-9.69,-0.48,-3.06,0.0,0.0,0.0,-9.09,-0.15,-3.65
1738244473.2675693,27320,0,0,,0.0,-0.77,0.32,0.51,0.23,0.48,0.76,-0.55,-9.28,-0.26,-3.4,0.0,0.0,0.0,-9.06,-0.21,-3.72
1738244473.2856772,27321,0,0,,0.0,-0.77,0.32,0.5,0.23,0.45,0.78,-0.58,-9.06,-0.1,-3.65,0.0,0.0,0.0,-9.0,-0.35,-3.85
1738244473.3025427,27322,0,0,,0.0,-0.78,0.32,0.49,0.23,0.43,0.79,-0.58,-9.07,-0.49,-3.41,0.0,0.0,0.0,-8.94,-0.48,-3.99
1738244473.3178396,27323,0,0,,0.0,-0.78,0.32,0.49,0.23,0.39,0.84,-0.6,-8.92,-0.6,-3.58,0.0,0.0,0.0,-8.9,-0.55,-4.06
1738244473.3360903,27324,0,0,,0.0,-0.78,0.31,0.48,0.24,0.36,0.91,-0.6,-9.03,-1.05,-3.37,0.0,0.0,0.0,-8.83,-0.68,-4.21
1738244473.352728,27325,0,0,,0.0,-0.79,0.31,0.47,0.24,0.34,0.94,-0.62,-8.84,-1.14,-3.4,0.0,0.0,0.0,-8.74,-0.81,-4.36
1738244473.3685768,27326,0,0,,0.0,-0.79,0.31,0.46,0.24,0.3,1.01,-0.63,-9.01,-1.14,-3.46,0.0,0.0,0.0,-8.69,-0.88,-4.45
1738244473.385881,27327,0,0,,0.0,-0.8,0.31,0.45,0.24,0.26,1.11,-0.65,-8.91,-1.01,-4.08,0.0,0.0,0.0,-8.58,-1.01,-4.62
1738244473.402847,27328,0,0,,0.0,-0.81,0.31,0.44,0.24,0.24,1.16,-0.65,-9.25,-0.93,-3.75,0.0,0.0,0.0,-8.46,-1.14,-4.82
1738244473.4182534,27329,0,0,,0.0,-0.81,0.31,0.44,0.24,0.2,1.31,-0.66,-9.2,-0.6,-4.17,0.0,0.0,0.0,-8.39,-1.2,-4.92
1738244473.4365928,27330,0,0,,0.0,-0.82,0.31,0.42,0.24,0.13,1.5,-0.64,-9.99,-0.96,-3.56,0.0,0.0,0.0,-8.23,-1.32,-5.15
1738244473.4536333,27331,0,0,,0.0,-0.83,0.31,0.41,0.24,0.09,1.58,-0.64,-10.25,-0.89,-3.81,0.0,0.0,0.0,-8.05,-1.43,-5.4
1738244473.4688983,27332,0,0,,0.0,-0.83,0.31,0.4,0.24,0.03,1.74,-0.62,-10.78,-1.48,-3.77,0.0,0.0,0.0,-7.95,-1.48,-5.54
1738244473.487111,27333,0,0,,0.0,-0.84,0.3,0.38,0.24,-0.0,1.86,-0.59,-10.87,-2.05,-4.04,0.0,0.0,0.0,-7.73,-1.57,-5.82
1738244473.5033593,27334,0,0,,0.0,-0.85,0.3,0.37,0.23,0.0,1.9,-0.59,-10.74,-2.16,-4.21,0.0,0.0,0.0,-7.49,-1.66,-6.1
1738244473.5185845,27335,0,0,,0.0,-0.85,0.3,0.36,0.23,0.05,1.9,-0.57,-10.61,-2.41,-4.52,0.0,0.0,0.0,-7.37,-1.7,-6.23
1738244473.5375996,27336,0,0,,0.0,-0.86,0.3,0.34,0.23,0.08,1.87,-0.55,-10.64,-1.83,-3.81,0.0,0.0,0.0,-7.12,-1.79,-6.5
1738244473.5539012,27337,0,0,,0.0,-0.87,0.3,0.33,0.22,0.05,1.81,-0.52,-10.65,-1.84,-3.65,0.0,0.0,0.0,-6.87,-1.86,-6.73
1738244473.56893,27338,0,0,,0.0,-0.87,0.3,0.32,0.22,-0.15,1.61,-0.48,-10.5,-1.99,-3.98,0.0,0.0,0.0,-6.76,-1.88,-6.84
1738244473.5879736,27339,0,0,,0.0,-0.88,0.3,0.31,0.22,-0.49,1.35,-0.5,-9.93,-1.94,-3.96,0.0,0.0,0.0,-6.55,-1.89,-7.04
1738244473.6035392,27340,0,0,,0.0,-0.88,0.3,0.3,0.21,-0.68,1.2,-0.53,-9.54,-1.63,-3.78,0.0,0.0,0.0,-6.38,-1.84,-7.21
1738244473.6188056,27341,0,0,,0.0,-0.89,0.29,0.3,0.2,-1.08,0.76,-0.51,-8.2,-1.39,-3.45,0.0,0.0,0.0,-6.32,-1.8,-7.27
1738244473.6378655,27342,0,0,,0.0,-0.89,0.29,0.3,0.19,-1.18,0.21,-0.47,-6.39,0.09,-4.76,0.0,0.0,0.0,-6.25,-1.69,-7.35
1738244473.654688,27343,0,0,,0.0,-0.89,0.28,0.3,0.18,-1.18,-0.06,-0.47,-5.95,1.05,-6.32,0.0,0.0,0.0,-6.26,-1.56,-7.38
1738244473.6691828,27344,0,0,,0.0,-0.9,0.27,0.3,0.18,-1.54,-0.29,-0.42,-5.67,-0.16,-8.83,0.0,0.0,0.0,-6.27,-1.48,-7.38
1738244473.6886692,27345,0,0,,0.0,-0.9,0.27,0.31,0.17,-1.09,-0.29,-0.39,-5.41,-0.42,-9.69,0.0,0.0,0.0,-6.3,-1.35,-7.38
1738244473.7046292,27346,0,0,,0.0,-0.9,0.26,0.31,0.17,-0.74,-0.27,-0.38,-4.61,-1.77,-10.0,0.0,0.0,0.0,-6.33,-1.32,-7.36
1738244473.7198942,27347,0,0,,0.0,-0.9,0.26,0.31,0.17,0.15,-0.25,-0.36,-4.79,-1.04,-8.75,0.0,0.0,0.0,-6.34,-1.35,-7.35
1738244473.7398324,27348,0,0,,0.0,-0.9,0.26,0.31,0.17,0.83,-0.33,-0.36,-4.26,-0.5,-6.7,0.0,0.0,0.0,-6.38,-1.49,-7.29
1738244473.755174,27349,0,0,,0.0,-0.89,0.26,0.31,0.19,1.1,-0.42,-0.26,-4.85,-0.4,-4.16,0.0,0.0,0.0,-6.44,-1.68,-7.19
1738244473.7695642,27350,0,0,,0.0,-0.89,0.26,0.32,0.19,1.33,-0.79,-0.03,-4.81,-0.26,-3.72,0.0,0.0,0.0,-6.5,-1.77,-7.12
1738244473.7896662,27351,0,0,,0.0,-0.89,0.26,0.32,0.21,1.43,-1.09,0.15,-5.09,0.51,-4.17,0.0,0.0,0.0,-6.64,-1.95,-6.94
1738244473.805058,27352,0,0,,0.0,-0.88,0.27,0.33,0.22,1.29,-1.27,0.28,-5.59,0.03,-3.49,0.0,0.0,0.0,-6.83,-2.06,-6.71
1738244473.8206131,27353,0,0,,0.0,-0.87,0.27,0.34,0.22,0.8,-1.61,0.54,-6.29,-0.79,-3.58,0.0,0.0,0.0,-6.95,-2.08,-6.59
1738244473.840085,27354,0,0,,0.0,-0.87,0.27,0.35,0.23,0.51,-1.93,0.69,-6.82,-1.08,-3.72,0.0,0.0,0.0,-7.2,-2.06,-6.32
1738244473.8552957,27355,0,0,,0.0,-0.85,0.27,0.37,0.24,0.48,-2.08,0.77,-7.11,-1.37,-4.43,0.0,0.0,0.0,-7.49,-2.0,-5.99
1738244473.869558,27356,0,0,,0.0,-0.85,0.28,0.38,0.24,0.5,-2.35,0.98,-7.24,-1.28,-4.59,0.0,0.0,0.0,-7.65,-1.95,-5.81
1738244473.890124,27357,0,0,,0.0,-0.83,0.28,0.4,0.25,0.51,-2.51,1.1,-7.7,-1.57,-4.94,0.0,0.0,0.0,-7.96,-1.85,-5.41
1738244473.9050162,27358,0,0,,0.0,-0.82,0.29,0.42,0.26,0.48,-2.57,1.17,-8.15,-1.74,-5.12,0.0,0.0,0.0,-8.26,-1.71,-4.99
1738244473.920197,27359,0,0,,0.0,-0.81,0.29,0.44,0.26,0.35,-2.66,1.31,-8.37,-1.62,-5.35,0.0,0.0,0.0,-8.41,-1.62,-4.77
1738244473.940092,27360,0,0,,0.0,-0.8,0.29,0.46,0.26,0.06,-2.71,1.44,-8.74,-1.37,-5.12,0.0,0.0,0.0,-8.68,-1.4,-4.32
1738244473.9555004,27361,0,0,,0.0,-0.78,0.3,0.49,0.26,-0.14,-2.74,1.49,-9.16,-1.82,-5.09,0.0,0.0,0.0,-8.94,-1.12,-3.85
1738244473.9701576,27362,0,0,,0.0,-0.77,0.3,0.5,0.26,-0.45,-2.78,1.5,-9.29,-1.92,-5.05,0.0,0.0,0.0,-9.06,-0.98,-3.62
1738244473.990546,27363,0,0,,0.0,-0.75,0.3,0.52,0.25,-0.61,-2.8,1.42,-9.9,-2.65,-4.89,0.0,0.0,0.0,-9.26,-0.68,-3.13
1738244474.0055382,27364,0,0,,0.0,-0.74,0.3,0.55,0.25,-0.62,-2.81,1.36,-10.15,-2.82,-4.8,0.0,0.0,0.0,-9.43,-0.4,-2.63
1738244474.020826,27365,0,0,,0.0,-0.73,0.3,0.56,0.25,-0.59,-2.83,1.29,-10.29,-2.75,-4.73,0.0,0.0,0.0,-9.51,-0.27,-2.37
1738244474.041097,27366,0,0,,0.0,-0.71,0.3,0.59,0.25,-0.48,-2.8,1.21,-10.49,-2.33,-4.75,0.0,0.0,0.0,-9.62,-0.02,-1.85
1738244474.0577714,27367,0,0,,0.0,-0.69,0.3,0.61,0.25,-0.41,-2.69,1.11,-10.71,-1.75,-4.76,0.0,0.0,0.0,-9.71,0.19,-1.34
1738244474.0741122,27368,0,0,,0.0,-0.68,0.3,0.63,0.24,-0.4,-2.6,1.07,-10.68,-1.59,-4.75,0.0,0.0,0.0,-9.76,0.4,-0.86
1738244474.0931842,27369,0,0,,0.0,-0.66,0.29,0.65,0.24,-0.4,-2.34,0.98,-10.55,-1.51,-4.66,0.0,0.0,0.0,-9.77,0.5,-0.64
1738244474.1106334,27370,0,0,,0.0,-0.65,0.29,0.66,0.24,-0.3,-2.01,0.89,-10.46,-1.69,-4.65,0.0,0.0,0.0,-9.78,0.67,-0.24
1738244474.1282406,27371,0,0,,0.0,-0.64,0.29,0.67,0.24,-0.11,-1.62,0.78,-10.14,-1.84,-4.11,0.0,0.0,0.0,-9.77,0.82,0.08
1738244474.1444244,27372,0,0,,0.0,-0.63,0.29,0.68,0.24,-0.0,-1.44,0.72,-9.94,-1.78,-4.09,0.0,0.0,0.0,-9.75,0.95,0.33
1738244474.1627357,27373,0,0,,0.0,-0.62,0.3,0.68,0.24,0.2,-1.08,0.61,-9.67,-1.65,-3.86,0.0,0.0,0.0,-9.74,1.01,0.43
1738244474.1789792,27374,0,0,,0.0,-0.62,0.3,0.69,0.24,0.31,-0.72,0.47,-9.01,-1.28,-3.77,0.0,0.0,0.0,-9.72,1.11,0.58
1738244474.1950903,27375,0,0,,0.0,-0.61,0.3,0.69,0.24,0.34,-0.54,0.39,-8.92,-0.89,-3.78,0.0,0.0,0.0,-9.71,1.18,0.66
1738244474.2129009,27376,0,0,,0.0,-0.61,0.3,0.69,0.24,0.25,-0.13,0.2,-9.01,-0.87,-3.24,0.0,0.0,0.0,-9.7,1.2,0.67
1738244474.2289565,27377,0,0,,0.0,-0.61,0.3,0.69,0.24,-0.0,0.18,0.0,-9.22,-0.71,-2.45,0.0,0.0,0.0,-9.7,1.21,0.64
1738244474.244769,27378,0,0,,0.0,-0.61,0.3,0.69,0.24,-0.14,0.29,-0.09,-9.51,-0.44,-1.3,0.0,0.0,0.0,-9.71,1.19,0.58
1738244474.2632499,27379,0,0,,0.0,-0.62,0.3,0.69,0.24,-0.42,0.45,-0.23,-9.72,-0.22,-0.4,0.0,0.0,0.0,-9.72,1.16,0.55
1738244474.2796454,27380,0,0,,0.0,-0.62,0.3,0.68,0.24,-0.6,0.45,-0.26,-11.34,1.74,4.7,0.0,0.0,0.0,-9.73,1.11,0.47
1738244474.2951438,27381,0,0,,0.0,-0.63,0.29,0.68,0.23,-0.55,0.38,-0.23,-12.46,5.15,8.11,0.0,0.0,0.0,-9.73,1.07,0.44
1738244474.313282,27382,0,0,,0.0,-0.62,0.29,0.69,0.23,-0.45,-0.2,0.14,-11.88,4.07,4.2,0.0,0.0,0.0,-9.73,1.08,0.46
1738244474.3297026,27383,0,0,,0.0,-0.62,0.29,0.69,0.23,-0.7,-0.43,0.38,-9.74,-0.28,-1.36,0.0,0.0,0.0,-9.72,1.14,0.55
1738244474.3455598,27384,0,0,,0.0,-0.62,0.29,0.69,0.22,-0.89,-0.26,0.26,-10.54,-1.38,0.66,0.0,0.0,0.0,-9.71,1.17,0.6
1738244474.3633537,27385,0,0,,0.0,-0.62,0.29,0.69,0.22,-0.47,0.08,0.1,-10.51,-1.23,1.14,0.0,0.0,0.0,-9.71,1.18,0.6
1738244474.379405,27386,0,0,,0.0,-0.62,0.29,0.69,0.22,-0.2,0.18,0.1,-9.66,-0.33,1.88,0.0,0.0,0.0,-9.71,1.2,0.58
1738244474.3950264,27387,0,0,,0.0,-0.62,0.29,0.69,0.22,-0.14,0.22,0.08,-9.28,0.49,1.73,0.0,0.0,0.0,-9.71,1.21,0.53
1738244474.4125788,27388,0,0,,0.0,-0.63,0.29,0.69,0.22,-0.11,0.31,0.09,-9.55,0.49,1.25,0.0,0.0,0.0,-9.71,1.22,0.51
1738244474.4297438,27389,0,0,,0.0,-0.63,0.29,0.69,0.22,-0.03,0.45,0.05,-9.38,1.04,0.03,0.0,0.0,0.0,-9.71,1.23,0.43
1738244474.445168,27390,0,0,,0.0,-0.63,0.29,0.69,0.22,0.0,0.48,0.04,-9.87,1.24,0.52,0.0,0.0,0.0,-9.72,1.24,0.33
1738244474.4632895,27391,0,0,,0.0,-0.63,0.29,0.68,0.22,0.12,0.49,0.02,-9.75,1.22,0.33,0.0,0.0,0.0,-9.72,1.24,0.29
1738244474.479707,27392,0,0,,0.0,-0.63,0.3,0.68,0.22,0.22,0.46,0.0,-9.86,1.6,0.49,0.0,0.0,0.0,-9.72,1.24,0.19
1738244474.4956424,27393,0,0,,0.0,-0.64,0.3,0.68,0.22,0.26,0.45,-0.0,-9.63,1.04,0.31,0.0,0.0,0.0,-9.72,1.24,0.1
1738244474.5135396,27394,0,0,,0.0,-0.64,0.3,0.67,0.22,0.15,0.46,0.01,-9.77,0.99,0.72,0.0,0.0,0.0,-9.72,1.24,0.06
1738244474.529763,27395,0,0,,0.0,-0.64,0.3,0.67,0.22,-0.02,0.48,-0.01,-9.93,0.69,0.29,0.0,0.0,0.0,-9.72,1.24,-0.02
1738244474.545731,27396,0,0,,0.0,-0.64,0.3,0.67,0.22,-0.06,0.49,-0.02,-9.6,0.71,-0.14,0.0,0.0,0.0,-9.72,1.24,-0.11
1738244474.5634923,27397,0,0,,0.0,-0.65,0.3,0.67,0.21,-0.11,0.48,-0.0,-9.65,0.65,-0.11,0.0,0.0,0.0,-9.72,1.24,-0.16
1738244474.5803866,27398,0,0,,0.0,-0.65,0.3,0.66,0.21,-0.04,0.47,0.01,-9.58,1.13,-0.25,0.0,0.0,0.0,-9.72,1.24,-0.25
1738244474.5956736,27399,0,0,,0.0,-0.65,0.3,0.66,0.21,-0.01,0.46,0.03,-9.6,1.54,-0.16,0.0,0.0,0.0,-9.72,1.25,-0.33
1738244474.6131787,27400,0,0,,0.0,-0.65,0.31,0.66,0.21,0.03,0.43,0.04,-9.29,1.45,-0.78,0.0,0.0,0.0,-9.71,1.25,-0.37
1738244474.6299293,27401,0,0,,0.0,-0.66,0.31,0.66,0.21,0.03,0.44,0.05,-9.47,1.72,-0.21,0.0,0.0,0.0,-9.71,1.26,-0.46
1738244474.645603,27402,0,0,,0.0,-0.66,0.31,0.66,0.21,0.01,0.42,0.07,-9.51,1.14,-0.58,0.0,0.0,0.0,-9.7,1.27,-0.53
1738244474.6630955,27403,0,0,,0.0,-0.66,0.31,0.65,0.21,0.04,0.39,0.09,-9.72,1.61,-0.01,0.0,0.0,0.0,-9.7,1.28,-0.57
1738244474.680276,27404,0,0,,0.0,-0.66,0.31,0.65,0.21,0.06,0.33,0.18,-9.17,2.02,-0.53,0.0,0.0,0.0,-9.69,1.32,-0.63
1738244474.6953468,27405,0,0,,0.0,-0.66,0.32,0.65,0.2,0.02,0.32,0.22,-9.07,1.36,-1.16,0.0,0.0,0.0,-9.68,1.36,-0.69
1738244474.713858,27406,0,0,,0.0,-0.66,0.32,0.65,0.2,-0.12,0.27,0.27,-9.42,0.66,-0.96,0.0,0.0,0.0,-9.68,1.39,-0.71
1738244474.7302823,27407,0,0,,0.0,-0.66,0.32,0.65,0.2,-0.14,0.31,0.19,-10.18,0.23,-0.85,0.0,0.0,0.0,-9.67,1.43,-0.77
1738244474.7456918,27408,0,0,,0.0,-0.66,0.32,0.65,0.2,-0.1,0.31,0.17,-10.05,0.21,-0.57,0.0,0.0,0.0,-9.66,1.46,-0.82
1738244474.7635987,27409,0,0,,0.0,-0.66,0.32,0.65,0.2,-0.04,0.31,0.16,-9.95,0.3,-1.28,0.0,0.0,0.0,-9.65,1.48,-0.85
1738244474.7810154,27410,0,0,,0.0,-0.67,0.32,0.64,0.2,-0.13,0.33,0.12,-10.5,0.52,-0.42,0.0,0.0,0.0,-9.64,1.5,-0.91
1738244474.7962244,27411,0,0,,0.0,-0.67,0.32,0.64,0.19,-0.13,0.32,0.1,-10.03,0.52,-0.84,0.0,0.0,0.0,-9.63,1.53,-0.96
1738244474.8141806,27412,0,0,,0.0,-0.67,0.32,0.64,0.19,-0.1,0.33,0.06,-9.89,1.28,-0.96,0.0,0.0,0.0,-9.63,1.53,-0.99
1738244474.8311613,27413,0,0,,0.0,-0.67,0.32,0.64,0.19,-0.04,0.33,0.01,-9.63,1.48,-0.97,0.0,0.0,0.0,-9.62,1.54,-1.05
1738244474.8459709,27414,0,0,,0.0,-0.67,0.32,0.64,0.19,-0.02,0.34,-0.03,-9.56,1.81,-0.47,0.0,0.0,0.0,-9.62,1.53,-1.12
1738244474.8646243,27415,0,0,,0.0,-0.67,0.32,0.63,0.19,-0.03,0.36,-0.09,-9.13,1.54,-1.43,0.0,0.0,0.0,-9.61,1.52,-1.15
1738244474.8810732,27416,0,0,,0.0,-0.68,0.32,0.63,0.19,-0.02,0.42,-0.17,-9.33,1.35,-1.36,0.0,0.0,0.0,-9.61,1.49,-1.22
1738244474.8959785,27417,0,0,,0.0,-0.68,0.32,0.63,0.19,-0.09,0.43,-0.19,-9.65,1.2,-0.86,0.0,0.0,0.0,-9.6,1.46,-1.3
1738244474.9141853,27418,0,0,,0.0,-0.68,0.32,0.63,0.19,-0.07,0.45,-0.23,-9.62,0.79,-1.19,0.0,0.0,0.0,-9.6,1.44,-1.34
1738244474.9311419,27419,0,0,,0.0,-0.68,0.32,0.63,0.19,-0.02,0.43,-0.22,-9.61,0.67,-1.37,0.0,0.0,0.0,-9.6,1.39,-1.42
1738244474.9461143,27420,0,0,,0.0,-0.69,0.32,0.62,0.19,0.02,0.41,-0.22,-9.62,0.47,-2.0,0.0,0.0,0.0,-9.59,1.36,-1.5
1738244474.9642234,27421,0,0,,0.0,-0.69,0.32,0.62,0.19,0.02,0.36,-0.05,-9.93,0.57,-1.03,0.0,0.0,0.0,-9.58,1.35,-1.53
1738244474.981262,27422,0,0,,0.0,-0.69,0.32,0.62,0.19,0.02,0.32,-0.04,-9.61,0.42,-1.87,0.0,0.0,0.0,-9.58,1.34,-1.59
1738244474.9959362,27423,0,0,,0.0,-0.69,0.32,0.62,0.19,0.01,0.33,0.0,-9.78,0.85,-1.41,0.0,0.0,0.0,-9.57,1.34,-1.66
1738244475.0137768,27424,0,0,,0.0,-0.69,0.32,0.61,0.19,0.0,0.3,-0.09,-9.55,0.83,-1.74,0.0,0.0,0.0,-9.56,1.33,-1.68
1738244475.0309737,27425,0,0,,0.0,-0.7,0.32,0.61,0.19,0.01,0.29,-0.1,-9.69,0.98,-1.25,0.0,0.0,0.0,-9.56,1.31,-1.74
1738244475.0460932,27426,0,0,,0.0,-0.7,0.32,0.61,0.19,0.0,0.28,-0.1,-9.85,1.0,-1.09,0.0,0.0,0.0,-9.55,1.29,-1.79
1738244475.0640173,27427,0,0,,0.0,-0.7,0.32,0.61,0.19,-0.0,0.3,-0.1,-9.62,1.06,-1.74,0.0,0.0,0.0,-9.54,1.28,-1.82
1738244475.0817692,27428,0,0,,0.0,-0.7,0.32,0.61,0.19,0.01,0.3,-0.1,-9.71,0.95,-1.51,0.0,0.0,0.0,-9.54,1.26,-1.87
1738244475.0963793,27429,0,0,,0.0,-0.7,0.32,0.61,0.19,0.01,0.31,-0.11,-9.54,0.9,-1.74,0.0,0.0,0.0,-9.53,1.24,-1.93
1738244475.1134663,27430,0,0,,0.0,-0.7,0.32,0.6,0.19,0.04,0.31,-0.11,-9.69,0.78,-1.55,0.0,0.0,0.0,-9.52,1.23,-1.96
1738244475.1312475,27431,0,0,,0.0,-0.71,0.32,0.6,0.19,0.06,0.3,-0.12,-9.39,0.77,-2.21,0.0,0.0,0.0,-9.52,1.2,-2.01
1738244475.1461532,27432,0,0,,0.0,-0.71,0.32,0.6,0.19,0.06,0.31,-0.12,-9.47,0.84,-2.05,0.0,0.0,0.0,-9.51,1.16,-2.07
1738244475.164254,27433,0,0,,0.0,-0.71,0.32,0.6,0.19,0.08,0.31,-0.13,-9.28,0.72,-2.42,0.0,0.0,0.0,-9.5,1.15,-2.1
1738244475.1813116,27434,0,0,,0.0,-0.71,0.32,0.59,0.19,0.08,0.32,-0.14,-9.48,0.72,-1.94,0.0,0.0,0.0,-9.49,1.12,-2.16
1738244475.1965399,27435,0,0,,0.0,-0.71,0.32,0.59,0.19,0.08,0.32,-0.14,-9.47,0.49,-2.27,0.0,0.0,0.0,-9.48,1.08,-2.22
1738244475.2134943,27436,0,0,,0.0,-0.72,0.32,0.59,0.19,0.08,0.32,-0.14,-9.6,0.67,-1.87,0.0,0.0,0.0,-9.48,1.06,-2.24
1738244475.230785,27437,0,0,,0.0,-0.72,0.32,0.59,0.19,0.09,0.31,-0.14,-9.6,0.42,-2.05,0.0,0.0,0.0,-9.47,1.02,-2.3
1738244475.2462375,27438,0,0,,0.0,-0.72,0.32,0.59,0.19,0.09,0.33,-0.15,-9.43,0.53,-2.33,0.0,0.0,0.0,-9.46,0.98,-2.35
1738244475.2638757,27439,0,0,,0.0,-0.72,0.32,0.58,0.19,0.12,0.33,-0.16,-9.65,0.41,-2.2,0.0,0.0,0.0,-9.46,0.96,-2.38
1738244475.2812984,27440,0,0,,0.0,-0.72,0.32,0.58,0.2,0.16,0.35,-0.17,-9.55,0.44,-2.15,0.0,0.0,0.0,-9.45,0.91,-2.44
1738244475.2962844,27441,0,0,,0.0,-0.72,0.32,0.58,0.2,0.19,0.36,-0.18,-9.71,0.66,-2.03,0.0,0.0,0.0,-9.44,0.86,-2.5
1738244475.3138905,27442,0,0,,0.0,-0.73,0.32,0.57,0.2,0.2,0.38,-0.19,-9.75,0.64,-1.95,0.0,0.0,0.0,-9.43,0.83,-2.53
1738244475.3313332,27443,0,0,,0.0,-0.73,0.32,0.57,0.2,0.24,0.42,-0.2,-9.87,0.7,-2.04,0.0,0.0,0.0,-9.42,0.77,-2.59
1738244475.3463376,27444,0,0,,0.0,-0.73,0.32,0.57,0.2,0.25,0.42,-0.22,-9.63,0.39,-2.78,0.0,0.0,0.0,-9.4,0.71,-2.66
1738244475.3649945,27445,0,0,,0.0,-0.73,0.32,0.56,0.2,0.25,0.47,-0.24,-9.91,0.51,-2.31,0.0,0.0,0.0,-9.39,0.69,-2.71
1738244475.3813164,27446,0,0,,0.0,-0.73,0.32,0.56,0.2,0.29,0.49,-0.26,-9.82,0.55,-2.53,0.0,0.0,0.0,-9.37,0.62,-2.8
1738244475.3966043,27447,0,0,,0.0,-0.74,0.32,0.56,0.21,0.3,0.52,-0.27,-9.93,0.34,-2.25,0.0,0.0,0.0,-9.35,0.55,-2.88
1738244475.4141228,27448,0,0,,0.0,-0.74,0.33,0.55,0.21,0.34,0.56,-0.31,-9.58,0.37,-3.03,0.0,0.0,0.0,-9.34,0.51,-2.94
1738244475.431843,27449,0,0,,0.0,-0.74,0.33,0.55,0.21,0.37,0.61,-0.36,-9.65,0.27,-2.74,0.0,0.0,0.0,-9.3,0.43,-3.05
1738244475.4467952,27450,0,0,,0.0,-0.75,0.33,0.54,0.21,0.35,0.62,-0.38,-10.22,0.09,-2.66,0.0,0.0,0.0,-9.27,0.34,-3.16
1738244475.4652762,27451,0,0,,0.0,-0.75,0.32,0.53,0.22,0.28,0.67,-0.46,-10.36,0.49,-3.09,0.0,0.0,0.0,-9.25,0.29,-3.23
1738244475.481596,27452,0,0,,0.0,-0.75,0.32,0.53,0.22,0.18,0.69,-0.52,-10.39,0.08,-2.7,0.0,0.0,0.0,-9.21,0.19,-3.35
1738244475.497184,27453,0,0,,0.0,-0.76,0.32,0.52,0.22,0.21,0.69,-0.52,-9.46,-0.28,-3.54,0.0,0.0,0.0,-9.16,0.08,-3.47
1738244475.5146735,27454,0,0,,0.0,-0.76,0.32,0.52,0.22,0.29,0.71,-0.53,-9.67,-0.59,-2.84,0.0,0.0,0.0,-9.14,0.02,-3.54
1738244475.5319314,27455,0,0,,0.0,-0.76,0.32,0.51,0.22,0.25,0.74,-0.57,-9.36,-0.44,-3.32,0.0,0.0,0.0,-9.09,-0.09,-3.67
1738244475.5469875,27456,0,0,,0.0,-0.77,0.32,0.51,0.22,0.12,0.78,-0.64,-9.36,-0.77,-3.01,0.0,0.0,0.0,-9.03,-0.21,-3.8
1738244475.5648935,27457,0,0,,0.0,-0.78,0.32,0.5,0.23,0.07,0.8,-0.67,-9.16,-0.73,-2.87,0.0,0.0,0.0,-9.0,-0.27,-3.87
1738244475.5820649,27458,0,0,,0.0,-0.78,0.31,0.49,0.23,0.02,0.88,-0.72,-9.04,-0.61,-2.85,0.0,0.0,0.0,-8.93,-0.39,-4.02
1738244475.5973492,27459,0,0,,0.0,-0.79,0.31,0.49,0.23,0.06,0.94,-0.72,-8.62,-0.38,-3.86,0.0,0.0,0.0,-8.85,-0.52,-4.18
1738244475.6148782,27460,0,0,,0.0,-0.79,0.31,0.48,0.23,0.08,1.0,-0.72,-8.89,-0.54,-3.51,0.0,0.0,0.0,-8.8,-0.59,-4.26
1738244475.6324368,27461,0,0,,0.0,-0.8,0.31,0.47,0.23,0.18,1.05,-0.69,-8.58,-0.67,-4.15,0.0,0.0,0.0,-8.71,-0.72,-4.44
1738244475.6476924,27462,0,0,,0.0,-0.8,0.31,0.46,0.23,0.29,1.13,-0.65,-8.56,-0.85,-4.1,0.0,0.0,0.0,-8.6,-0.86,-4.62
1738244475.665004,27463,0,0,,0.0,-0.81,0.31,0.45,0.23,0.33,1.17,-0.62,-8.63,-0.71,-4.24,0.0,0.0,0.0,-8.54,-0.92,-4.71
1738244475.68206,27464,0,0,,0.0,-0.81,0.3,0.44,0.23,0.37,1.24,-0.55,-8.91,-1.02,-4.36,0.0,0.0,0.0,-8.42,-1.05,-4.91
1738244475.6971765,27465,0,0,,0.0,-0.82,0.3,0.43,0.23,0.39,1.35,-0.51,-9.15,-1.37,-4.0,0.0,0.0,0.0,-8.28,-1.17,-5.11
1738244475.7150674,27466,0,0,,0.0,-0.82,0.3,0.42,0.23,0.39,1.4,-0.51,-9.42,-1.12,-4.09,0.0,0.0,0.0,-8.2,-1.23,-5.22
1738244475.7322779,27467,0,0,,0.0,-0.83,0.3,0.41,0.23,0.33,1.5,-0.47,-9.64,-1.36,-4.06,0.0,0.0,0.0,-8.04,-1.34,-5.44
1738244475.7476122,27468,0,0,,0.0,-0.84,0.3,0.4,0.23,0.3,1.65,-0.43,-10.47,-0.9,-4.29,0.0,0.0,0.0,-7.85,-1.44,-5.68
1738244475.764952,27469,0,0,,0.0,-0.84,0.31,0.38,0.23,0.29,1.71,-0.4,-10.68,-0.95,-4.36,0.0,0.0,0.0,-7.75,-1.49,-5.81
1738244475.7827008,27470,0,0,,0.0,-0.85,0.31,0.37,0.23,0.2,1.82,-0.35,-10.58,-0.93,-4.45,0.0,0.0,0.0,-7.53,-1.57,-6.07
1738244475.7976668,27471,0,0,,0.0,-0.85,0.31,0.35,0.23,0.11,1.86,-0.32,-10.52,-0.99,-4.33,0.0,0.0,0.0,-7.3,-1.63,-6.33
1738244475.815666,27472,0,0,,0.0,-0.86,0.31,0.34,0.22,0.14,1.83,-0.28,-10.68,-1.1,-4.17,0.0,0.0,0.0,-7.18,-1.66,-6.46
1738244475.8325489,27473,0,0,,0.0,-0.86,0.31,0.33,0.22,0.73,1.67,-0.21,-9.37,-2.63,-5.45,0.0,0.0,0.0,-6.96,-1.76,-6.67
1738244475.8481073,27474,0,0,,0.0,-0.87,0.31,0.31,0.23,0.86,1.71,-0.42,-8.81,-2.03,-7.09,0.0,0.0,0.0,-6.72,-1.92,-6.87
1738244475.8655033,27475,0,0,,0.0,-0.87,0.32,0.3,0.23,0.8,1.68,-0.47,-8.53,-1.83,-7.75,0.0,0.0,0.0,-6.6,-2.0,-6.96
1738244475.883194,27476,0,0,,0.0,-0.87,0.32,0.29,0.23,0.62,1.67,-0.59,-7.84,-3.04,-9.87,0.0,0.0,0.0,-6.35,-2.16,-7.14
1738244475.8975656,27477,0,0,,0.0,-0.88,0.32,0.27,0.23,0.84,1.62,-0.67,-8.54,-1.28,-7.49,0.0,0.0,0.0,-6.09,-2.35,-7.31
1738244475.9155834,27478,0,0,,0.0,-0.88,0.32,0.25,0.24,0.78,1.49,-0.65,-8.03,-1.71,-7.09,0.0,0.0,0.0,-5.86,-2.53,-7.44
1738244475.9334934,27479,0,0,,0.0,-0.88,0.32,0.25,0.24,0.68,1.17,-0.62,-6.78,-0.57,-5.3,0.0,0.0,0.0,-5.76,-2.62,-7.49
1738244475.9477634,27480,0,0,,0.0,-0.89,0.31,0.24,0.24,0.43,0.75,-0.46,-5.89,-0.51,-4.36,0.0,0.0,0.0,-5.6,-2.75,-7.55
1738244475.965366,27481,0,0,,0.0,-0.89,0.31,0.23,0.24,0.29,0.51,-0.37,-5.12,-0.6,-3.74,0.0,0.0,0.0,-5.56,-2.79,-7.57
1738244475.983806,27482,0,0,,0.0,-0.89,0.31,0.23,0.24,0.04,-0.03,-0.15,-4.82,-0.7,-3.3,0.0,0.0,0.0,-5.53,-2.83,-7.58
1738244475.998207,27483,0,0,,0.0,-0.89,0.31,0.24,0.24,-0.2,-0.56,0.08,-4.39,-0.87,-3.15,0.0,0.0,0.0,-5.59,-2.8,-7.54
1738244476.0155532,27484,0,0,,0.0,-0.89,0.31,0.25,0.24,-0.29,-0.82,0.18,-4.26,-1.16,-3.3,0.0,0.0,0.0,-5.74,-2.73,-7.45
1738244476.0336173,27485,0,0,,0.0,-0.88,0.31,0.25,0.24,-0.32,-1.28,0.38,-4.38,-1.87,-3.42,0.0,0.0,0.0,-5.84,-2.69,-7.39
1738244476.0492415,27486,0,0,,0.0,-0.88,0.31,0.27,0.24,-0.25,-1.68,0.53,-4.52,-2.32,-3.77,0.0,0.0,0.0,-6.09,-2.59,-7.22
1738244476.066084,27487,0,0,,0.0,-0.87,0.31,0.29,0.25,-0.21,-1.87,0.59,-4.92,-2.42,-3.85,0.0,0.0,0.0,-6.39,-2.49,-6.99
1738244476.083977,27488,0,0,,0.0,-0.87,0.31,0.3,0.25,-0.1,-2.21,0.69,-5.33,-2.1,-4.1,0.0,0.0,0.0,-6.56,-2.44,-6.86
1738244476.0999582,27489,0,0,,0.0,-0.86,0.31,0.32,0.25,-0.03,-2.53,0.77,-6.27,-2.25,-4.59,0.0,0.0,0.0,-6.91,-2.34,-6.54
1738244476.1168575,27490,0,0,,0.0,-0.85,0.31,0.34,0.26,0.05,-2.67,0.79,-6.9,-2.16,-5.03,0.0,0.0,0.0,-7.28,-2.24,-6.16
1738244476.134268,27491,0,0,,0.0,-0.84,0.31,0.36,0.26,0.15,-2.89,0.9,-7.66,-1.97,-5.31,0.0,0.0,0.0,-7.47,-2.19,-5.95
1738244476.1497562,27492,0,0,,0.0,-0.83,0.31,0.38,0.27,-0.06,-3.04,1.05,-8.33,-1.61,-5.67,0.0,0.0,0.0,-7.85,-2.04,-5.51
1738244476.1666849,27493,0,0,,0.0,-0.81,0.31,0.41,0.27,-0.26,-3.09,1.11,-8.53,-1.42,-5.92,0.0,0.0,0.0,-8.2,-1.82,-5.04
1738244476.1839352,27494,0,0,,0.0,-0.81,0.31,0.43,0.27,-0.71,-3.12,1.16,-8.87,-1.27,-6.17,0.0,0.0,0.0,-8.37,-1.7,-4.8
1738244476.199953,27495,0,0,,0.0,-0.79,0.31,0.46,0.27,-1.06,-3.12,1.17,-9.16,-1.78,-5.85,0.0,0.0,0.0,-8.68,-1.42,-4.31
1738244476.2171996,27496,0,0,,0.0,-0.78,0.3,0.49,0.26,-1.13,-3.12,1.17,-9.58,-2.17,-5.5,0.0,0.0,0.0,-8.96,-1.13,-3.81
1738244476.2345347,27497,0,0,,0.0,-0.76,0.3,0.52,0.26,-1.02,-3.15,1.18,-9.81,-2.23,-5.28,0.0,0.0,0.0,-9.08,-0.99,-3.54
1738244476.250242,27498,0,0,,0.0,-0.75,0.3,0.53,0.26,-0.76,-3.17,1.2,-10.36,-2.2,-4.79,0.0,0.0,0.0,-9.3,-0.73,-2.99
1738244476.26667,27499,0,0,,0.0,-0.73,0.29,0.56,0.26,-0.61,-3.18,1.2,-10.9,-2.06,-4.7,0.0,0.0,0.0,-9.48,-0.48,-2.42
1738244476.28489,27500,0,0,,0.0,-0.71,0.29,0.58,0.26,-0.35,-3.12,1.23,-11.06,-1.89,-4.59,0.0,0.0,0.0,-9.56,-0.36,-2.14
1738244476.301009,27501,0,0,,0.0,-0.7,0.29,0.59,0.26,-0.18,-3.01,1.27,-11.15,-1.47,-4.49,0.0,0.0,0.0,-9.67,-0.11,-1.57
1738244476.3173919,27502,0,0,,0.0,-0.68,0.29,0.62,0.26,-0.14,-2.92,1.28,-11.01,-1.36,-4.2,0.0,0.0,0.0,-9.75,0.12,-1.03
1738244476.3346066,27503,0,0,,0.0,-0.66,0.3,0.64,0.26,-0.12,-2.69,1.24,-10.99,-1.48,-4.06,0.0,0.0,0.0,-9.77,0.24,-0.78
1738244476.3507786,27504,0,0,,0.0,-0.65,0.3,0.65,0.26,-0.08,-2.41,1.14,-11.21,-1.76,-3.87,0.0,0.0,0.0,-9.79,0.46,-0.3
1738244476.3669689,27505,0,0,,0.0,-0.64,0.3,0.66,0.26,-0.06,-2.27,1.07,-11.13,-1.79,-3.54,0.0,0.0,0.0,-9.78,0.66,0.1
1738244476.3840604,27506,0,0,,0.0,-0.63,0.3,0.67,0.25,-0.09,-1.97,0.88,-10.56,-1.84,-3.7,0.0,0.0,0.0,-9.77,0.74,0.29
1738244476.400406,27507,0,0,,0.0,-0.62,0.3,0.68,0.25,-0.16,-1.59,0.67,-9.88,-1.5,-4.18,0.0,0.0,0.0,-9.74,0.87,0.61
1738244476.4171176,27508,0,0,,0.0,-0.61,0.29,0.69,0.25,-0.22,-1.37,0.55,-9.27,-1.02,-4.05,0.0,0.0,0.0,-9.72,0.97,0.85
1738244476.4344912,27509,0,0,,0.0,-0.61,0.29,0.7,0.25,-0.41,-0.9,0.35,-9.16,-1.04,-3.79,0.0,0.0,0.0,-9.7,0.99,0.94
1738244476.450342,27510,0,0,,0.0,-0.6,0.29,0.7,0.25,-0.55,-0.49,0.14,-8.73,-1.25,-3.45,0.0,0.0,0.0,-9.69,1.02,1.06
1738244476.46745,27511,0,0,,0.0,-0.6,0.28,0.7,0.25,-0.59,-0.29,0.06,-8.65,-1.35,-3.35,0.0,0.0,0.0,-9.68,1.01,1.11
1738244476.4848158,27512,0,0,,0.0,-0.6,0.28,0.71,0.24,-0.57,0.06,-0.07,-8.7,-1.21,-2.99,0.0,0.0,0.0,-9.69,1.0,1.11
1738244476.500792,27513,0,0,,0.0,-0.61,0.28,0.7,0.24,-0.47,0.35,-0.13,-8.84,-0.76,-2.79,0.0,0.0,0.0,-9.69,0.97,1.07
1738244476.5175529,27514,0,0,,0.0,-0.61,0.27,0.7,0.24,-0.43,0.46,-0.15,-9.5,0.47,-0.08,0.0,0.0,0.0,-9.71,0.93,0.98
1738244476.5345838,27515,0,0,,0.0,-0.61,0.27,0.7,0.24,-0.49,0.53,-0.17,-9.8,1.29,0.99,0.0,0.0,0.0,-9.71,0.91,0.94
1738244476.5508914,27516,0,0,,0.0,-0.62,0.27,0.7,0.23,-0.37,0.39,-0.07,-11.91,3.48,6.47,0.0,0.0,0.0,-9.72,0.88,0.86
1738244476.5673668,27517,0,0,,0.0,-0.62,0.27,0.7,0.23,-0.23,0.16,0.07,-11.81,3.04,4.48,0.0,0.0,0.0,-9.72,0.91,0.86
1738244476.5847166,27518,0,0,,0.0,-0.62,0.27,0.7,0.23,-0.26,-0.23,0.35,-10.73,1.03,1.57,0.0,0.0,0.0,-9.72,0.94,0.88
1738244476.600608,27519,0,0,,0.0,-0.62,0.27,0.7,0.23,-0.33,0.01,0.2,-10.23,-0.88,-0.14,0.0,0.0,0.0,-9.71,0.98,0.9
1738244476.6176193,27520,0,0,,0.0,-0.62,0.27,0.7,0.23,-0.26,0.15,0.13,-10.54,-0.77,1.47,0.0,0.0,0.0,-9.71,1.0,0.87
1738244476.6352565,27521,0,0,,0.0,-0.62,0.27,0.7,0.22,-0.16,0.3,0.1,-10.23,-0.49,1.4,0.0,0.0,0.0,-9.71,1.01,0.84
1738244476.6513252,27522,0,0,,0.0,-0.62,0.27,0.7,0.22,-0.21,0.35,0.09,-9.44,-0.1,1.44,0.0,0.0,0.0,-9.72,1.02,0.78
1738244476.6674395,27523,0,0,,0.0,-0.62,0.27,0.7,0.22,-0.24,0.39,0.1,-9.47,0.55,1.27,0.0,0.0,0.0,-9.72,1.04,0.71
1738244476.6852272,27524,0,0,,0.0,-0.63,0.27,0.7,0.22,-0.23,0.45,0.12,-9.49,0.73,0.91,0.0,0.0,0.0,-9.72,1.05,0.67
1738244476.7019587,27525,0,0,,0.0,-0.63,0.27,0.7,0.21,-0.16,0.44,0.14,-9.5,1.34,0.26,0.0,0.0,0.0,-9.72,1.07,0.59
1738244476.7176871,27526,0,0,,0.0,-0.63,0.27,0.69,0.21,-0.13,0.41,0.17,-9.89,1.28,0.63,0.0,0.0,0.0,-9.72,1.1,0.52
1738244476.7350836,27527,0,0,,0.0,-0.63,0.28,0.69,0.21,-0.01,0.34,0.21,-9.7,0.89,0.04,0.0,0.0,0.0,-9.72,1.12,0.49
1738244476.752198,27528,0,0,,0.0,-0.63,0.28,0.69,0.21,0.15,0.3,0.24,-10.02,0.22,0.49,0.0,0.0,0.0,-9.72,1.17,0.43
1738244476.7679024,27529,0,0,,0.0,-0.63,0.28,0.69,0.21,0.24,0.27,0.25,-10.08,-0.26,0.43,0.0,0.0,0.0,-9.72,1.22,0.37
1738244476.785435,27530,0,0,,0.0,-0.63,0.29,0.69,0.21,0.33,0.25,0.26,-10.17,0.0,0.75,0.0,0.0,0.0,-9.72,1.25,0.34
1738244476.801961,27531,0,0,,0.0,-0.63,0.29,0.69,0.21,0.25,0.25,0.27,-9.99,0.52,0.69,0.0,0.0,0.0,-9.71,1.3,0.29
1738244476.8181574,27532,0,0,,0.0,-0.63,0.3,0.68,0.21,0.22,0.25,0.26,-9.59,0.69,-0.01,0.0,0.0,0.0,-9.7,1.35,0.24
1738244476.8358824,27533,0,0,,0.0,-0.63,0.3,0.68,0.21,0.23,0.27,0.24,-9.76,0.91,0.47,0.0,0.0,0.0,-9.7,1.37,0.21
1738244476.8531692,27534,0,0,,0.0,-0.63,0.3,0.68,0.21,0.39,0.31,0.2,-9.48,1.28,0.52,0.0,0.0,0.0,-9.7,1.41,0.14
1738244476.8686047,27535,0,0,,0.0,-0.63,0.31,0.68,0.21,0.5,0.39,0.15,-9.36,1.7,0.85,0.0,0.0,0.0,-9.69,1.44,0.06
1738244476.8862023,27536,0,0,,0.0,-0.64,0.31,0.67,0.21,0.54,0.42,0.13,-9.09,1.9,0.15,0.0,0.0,0.0,-9.69,1.47,-0.03
1738244476.9028583,27537,0,0,,0.0,-0.64,0.31,0.67,0.21,0.51,0.48,0.09,-9.35,2.15,-0.03,0.0,0.0,0.0,-9.69,1.48,-0.08
1738244476.9187222,27538,0,0,,0.0,-0.64,0.32,0.67,0.21,0.29,0.51,0.07,-9.6,1.71,-0.33,0.0,0.0,0.0,-9.69,1.49,-0.18
1738244476.9363399,27539,0,0,,0.0,-0.64,0.32,0.66,0.21,0.21,0.5,0.07,-9.73,1.76,-0.14,0.0,0.0,0.0,-9.68,1.5,-0.28
1738244476.9533446,27540,0,0,,0.0,-0.64,0.32,0.66,0.21,-0.01,0.45,0.08,-9.93,1.3,-0.72,0.0,0.0,0.0,-9.68,1.51,-0.32
1738244476.968593,27541,0,0,,0.0,-0.65,0.32,0.66,0.21,-0.17,0.37,0.08,-9.71,0.87,-1.07,0.0,0.0,0.0,-9.67,1.53,-0.39
1738244476.9858232,27542,0,0,,0.0,-0.65,0.32,0.66,0.21,-0.21,0.34,0.08,-10.03,0.42,-0.56,0.0,0.0,0.0,-9.67,1.54,-0.45
1738244477.003062,27543,0,0,,0.0,-0.65,0.32,0.66,0.2,-0.11,0.29,0.08,-9.84,0.76,-0.89,0.0,0.0,0.0,-9.67,1.55,-0.47
1738244477.0188131,27544,0,0,,0.0,-0.65,0.32,0.66,0.2,-0.04,0.29,0.05,-9.79,1.29,-0.56,0.0,0.0,0.0,-9.66,1.56,-0.52
1738244477.0362027,27545,0,0,,0.0,-0.65,0.32,0.66,0.2,-0.03,0.29,0.04,-9.8,1.2,-0.41,0.0,0.0,0.0,-9.66,1.57,-0.55
1738244477.0531843,27546,0,0,,0.0,-0.65,0.32,0.65,0.2,0.0,0.31,0.01,-9.81,1.37,0.0,0.0,0.0,0.0,-9.66,1.57,-0.61
1738244477.0688767,27547,0,0,,0.0,-0.66,0.32,0.65,0.2,0.06,0.33,-0.03,-9.37,1.27,-0.91,0.0,0.0,0.0,-9.65,1.57,-0.67
1738244477.0859108,27548,0,0,,0.0,-0.66,0.33,0.65,0.2,0.12,0.34,-0.05,-9.61,1.49,-0.36,0.0,0.0,0.0,-9.65,1.55,-0.74
1738244477.1037605,27549,0,0,,0.0,-0.66,0.33,0.65,0.2,0.15,0.37,-0.08,-9.53,1.09,-0.92,0.0,0.0,0.0,-9.65,1.55,-0.77
1738244477.1189253,27550,0,0,,0.0,-0.66,0.33,0.64,0.2,0.18,0.37,-0.1,-9.66,1.14,-0.74,0.0,0.0,0.0,-9.64,1.52,-0.85
1738244477.1362715,27551,0,0,,0.0,-0.66,0.33,0.64,0.2,0.19,0.36,-0.1,-9.5,1.13,-1.13,0.0,0.0,0.0,-9.64,1.51,-0.89
1738244477.153176,27552,0,0,,0.0,-0.66,0.33,0.64,0.2,0.22,0.34,-0.1,-9.52,1.33,-1.04,0.0,0.0,0.0,-9.64,1.49,-0.96
1738244477.1691895,27553,0,0,,0.0,-0.67,0.33,0.64,0.2,0.14,0.33,-0.11,-9.93,1.06,-0.48,0.0,0.0,0.0,-9.64,1.46,-1.02
1738244477.1862183,27554,0,0,,0.0,-0.67,0.33,0.63,0.2,0.12,0.32,-0.1,-9.54,0.93,-1.43,0.0,0.0,0.0,-9.63,1.44,-1.09
1738244477.2047381,27555,0,0,,0.0,-0.67,0.33,0.63,0.2,-0.0,0.33,-0.11,-9.85,0.98,-0.84,0.0,0.0,0.0,-9.63,1.43,-1.12
1738244477.2192295,27556,0,0,,0.0,-0.67,0.33,0.63,0.2,-0.07,0.31,-0.1,-9.63,0.86,-1.15,0.0,0.0,0.0,-9.63,1.4,-1.17
1738244477.2362719,27557,0,0,,0.0,-0.67,0.33,0.63,0.2,-0.1,0.31,-0.1,-9.68,1.02,-0.79,0.0,0.0,0.0,-9.63,1.38,-1.22
1738244477.254246,27558,0,0,,0.0,-0.68,0.33,0.63,0.2,-0.18,0.3,-0.09,-9.46,0.98,-1.36,0.0,0.0,0.0,-9.62,1.37,-1.25
1738244477.2694728,27559,0,0,,0.0,-0.68,0.33,0.63,0.2,-0.3,0.29,0.03,-9.58,1.89,-1.05,0.0,0.0,0.0,-9.62,1.38,-1.3
1738244477.2877162,27560,0,0,,0.0,-0.68,0.33,0.63,0.19,-0.44,0.29,0.03,-9.38,1.34,-1.66,0.0,0.0,0.0,-9.61,1.4,-1.34
1738244477.3045278,27561,0,0,,0.0,-0.68,0.32,0.63,0.19,-0.44,0.29,-0.05,-9.67,1.31,-1.23,0.0,0.0,0.0,-9.6,1.4,-1.36
1738244477.3197353,27562,0,0,,0.0,-0.68,0.32,0.63,0.19,-0.4,0.28,-0.13,-9.75,0.8,-1.12,0.0,0.0,0.0,-9.6,1.39,-1.4
1738244477.3376975,27563,0,0,,0.0,-0.69,0.32,0.63,0.19,-0.35,0.28,-0.14,-9.83,0.88,-0.97,0.0,0.0,0.0,-9.6,1.38,-1.44
1738244477.3544853,27564,0,0,,0.0,-0.69,0.32,0.62,0.19,-0.3,0.29,-0.13,-9.57,0.75,-1.43,0.0,0.0,0.0,-9.59,1.37,-1.47
1738244477.3707752,27565,0,0,,0.0,-0.69,0.32,0.62,0.18,-0.3,0.29,-0.14,-9.45,0.96,-1.69,0.0,0.0,0.0,-9.59,1.35,-1.51
1738244477.3878338,27566,0,0,,0.0,-0.69,0.31,0.62,0.18,-0.28,0.31,-0.15,-9.64,1.05,-1.32,0.0,0.0,0.0,-9.58,1.33,-1.56
1738244477.4048903,27567,0,0,,0.0,-0.7,0.31,0.62,0.18,-0.23,0.29,-0.15,-9.47,1.02,-1.68,0.0,0.0,0.0,-9.58,1.31,-1.59
1738244477.4194446,27568,0,0,,0.0,-0.7,0.31,0.62,0.18,-0.15,0.3,-0.15,-9.62,0.9,-1.3,0.0,0.0,0.0,-9.58,1.28,-1.63
1738244477.437381,27569,0,0,,0.0,-0.7,0.31,0.62,0.18,-0.13,0.3,-0.15,-9.3,0.83,-2.02,0.0,0.0,0.0,-9.57,1.26,-1.69
1738244477.4551635,27570,0,0,,0.0,-0.7,0.31,0.62,0.18,-0.1,0.32,-0.15,-9.82,0.92,-1.3,0.0,0.0,0.0,-9.57,1.25,-1.72
1738244477.4699888,27571,0,0,,0.0,-0.7,0.31,0.61,0.18,-0.07,0.34,-0.15,-9.77,0.55,-1.55,0.0,0.0,0.0,-9.56,1.22,-1.78
1738244477.4875703,27572,0,0,,0.0,-0.71,0.31,0.61,0.18,-0.05,0.34,-0.16,-9.61,0.67,-1.77,0.0,0.0,0.0,-9.55,1.18,-1.84
1738244477.5047133,27573,0,0,,0.0,-0.71,0.31,0.61,0.18,0.02,0.35,-0.15,-9.48,0.7,-1.6,0.0,0.0,0.0,-9.55,1.16,-1.86
1738244477.5205142,27574,0,0,,0.0,-0.71,0.31,0.61,0.18,0.06,0.37,-0.16,-9.59,0.88,-1.36,0.0,0.0,0.0,-9.54,1.12,-1.93
1738244477.5373302,27575,0,0,,0.0,-0.71,0.31,0.6,0.18,0.06,0.4,-0.16,-9.75,0.57,-1.22,0.0,0.0,0.0,-9.53,1.09,-2.01
1738244477.5557678,27576,0,0,,0.0,-0.71,0.31,0.6,0.18,0.1,0.42,-0.18,-9.44,0.6,-2.22,0.0,0.0,0.0,-9.52,1.07,-2.05
1738244477.5707655,27577,0,0,,0.0,-0.72,0.31,0.6,0.18,0.17,0.47,-0.21,-9.57,0.78,-2.02,0.0,0.0,0.0,-9.51,1.03,-2.13
1738244477.5878718,27578,0,0,,0.0,-0.72,0.31,0.59,0.18,0.2,0.47,-0.2,-9.46,0.77,-2.14,0.0,0.0,0.0,-9.49,0.98,-2.23
1738244477.6055367,27579,0,0,,0.0,-0.72,0.31,0.59,0.18,0.22,0.5,-0.23,-9.51,0.85,-1.81,0.0,0.0,0.0,-9.48,0.96,-2.27
1738244477.6205952,27580,0,0,,0.0,-0.73,0.31,0.59,0.19,0.24,0.52,-0.24,-9.35,0.65,-2.61,0.0,0.0,0.0,-9.47,0.9,-2.37
1738244477.6379237,27581,0,0,,0.0,-0.73,0.31,0.58,0.19,0.26,0.54,-0.26,-9.56,0.44,-2.61,0.0,0.0,0.0,-9.45,0.84,-2.47
1738244477.6552813,27582,0,0,,0.0,-0.73,0.31,0.58,0.19,0.3,0.56,-0.27,-9.74,0.19,-2.64,0.0,0.0,0.0,-9.43,0.81,-2.53
1738244477.6707568,27583,0,0,,0.0,-0.73,0.31,0.57,0.19,0.34,0.56,-0.29,-10.05,0.79,-2.16,0.0,0.0,0.0,-9.41,0.74,-2.63
1738244477.6879866,27584,0,0,,0.0,-0.74,0.31,0.57,0.19,0.32,0.57,-0.32,-10.24,1.02,-2.75,0.0,0.0,0.0,-9.38,0.66,-2.74
1738244477.7055595,27585,0,0,,0.0,-0.74,0.31,0.57,0.19,0.16,0.6,-0.38,-11.07,1.02,-1.97,0.0,0.0,0.0,-9.37,0.63,-2.8
1738244477.7204921,27586,0,0,,0.0,-0.74,0.31,0.56,0.19,0.23,0.64,-0.39,-10.31,-0.14,-1.91,0.0,0.0,0.0,-9.34,0.54,-2.91
1738244477.7382805,27587,0,0,,0.0,-0.75,0.31,0.55,0.2,0.3,0.64,-0.41,-9.94,-0.1,-2.93,0.0,0.0,0.0,-9.31,0.45,-3.04
1738244477.7558424,27588,0,0,,0.0,-0.75,0.31,0.55,0.2,0.27,0.7,-0.44,-10.33,-0.06,-2.43,0.0,0.0,0.0,-9.29,0.41,-3.1
1738244477.7712464,27589,0,0,,0.0,-0.76,0.31,0.54,0.2,0.13,0.71,-0.49,-10.14,-0.21,-2.41,0.0,0.0,0.0,-9.25,0.31,-3.23
1738244477.7879233,27590,0,0,,0.0,-0.76,0.3,0.54,0.2,0.13,0.73,-0.5,-9.91,-0.42,-2.28,0.0,0.0,0.0,-9.2,0.21,-3.36
1738244477.8054667,27591,0,0,,0.0,-0.76,0.3,0.53,0.2,0.21,0.77,-0.54,-9.45,-0.16,-2.84,0.0,0.0,0.0,-9.18,0.15,-3.43
1738244477.8209434,27592,0,0,,0.0,-0.77,0.3,0.53,0.2,0.28,0.84,-0.59,-9.22,0.11,-2.97,0.0,0.0,0.0,-9.12,0.03,-3.58
1738244477.8381135,27593,0,0,,0.0,-0.78,0.3,0.52,0.2,0.27,0.87,-0.61,-9.22,-0.14,-3.17,0.0,0.0,0.0,-9.06,-0.09,-3.73
1738244477.8556995,27594,0,0,,0.0,-0.78,0.3,0.51,0.21,0.3,0.95,-0.68,-9.17,-0.26,-3.17,0.0,0.0,0.0,-9.02,-0.16,-3.82
1738244477.8711274,27595,0,0,,0.0,-0.79,0.3,0.5,0.21,0.41,1.04,-0.71,-8.88,-0.4,-3.36,0.0,0.0,0.0,-8.94,-0.31,-3.99
1738244477.8886566,27596,0,0,,0.0,-0.79,0.29,0.49,0.21,0.48,1.09,-0.72,-8.8,-0.35,-3.27,0.0,0.0,0.0,-8.85,-0.47,-4.18
1738244477.906128,27597,0,0,,0.0,-0.8,0.29,0.48,0.22,0.58,1.2,-0.71,-8.72,-0.57,-3.28,0.0,0.0,0.0,-8.8,-0.56,-4.28
1738244477.9220657,27598,0,0,,0.0,-0.8,0.29,0.47,0.22,0.59,1.33,-0.72,-8.99,-0.58,-3.85,0.0,0.0,0.0,-8.68,-0.73,-4.49
1738244477.9392064,27599,0,0,,0.0,-0.81,0.29,0.46,0.22,0.55,1.42,-0.71,-9.35,-0.93,-3.61,0.0,0.0,0.0,-8.54,-0.9,-4.73
1738244477.9568527,27600,0,0,,0.0,-0.82,0.29,0.44,0.22,0.51,1.58,-0.7,-9.44,-0.71,-3.83,0.0,0.0,0.0,-8.46,-0.98,-4.85
1738244477.9720347,27601,0,0,,0.0,-0.82,0.29,0.43,0.23,0.48,1.76,-0.66,-9.83,-1.1,-3.54,0.0,0.0,0.0,-8.28,-1.13,-5.12
1738244477.989027,27602,0,0,,0.0,-0.83,0.29,0.42,0.23,0.46,1.85,-0.65,-10.59,-0.82,-3.51,0.0,0.0,0.0,-8.07,-1.28,-5.41
1738244478.0063622,27603,0,0,,0.0,-0.84,0.29,0.4,0.22,0.38,2.04,-0.6,-11.2,-0.65,-3.25,0.0,0.0,0.0,-7.95,-1.35,-5.56
1738244478.0212588,27604,0,0,,0.0,-0.84,0.3,0.39,0.22,0.26,2.2,-0.55,-12.38,-1.08,-3.8,0.0,0.0,0.0,-7.7,-1.46,-5.88
1738244478.03926,27605,0,0,,0.0,-0.85,0.3,0.37,0.22,0.22,2.26,-0.52,-12.3,-1.02,-3.76,0.0,0.0,0.0,-7.42,-1.56,-6.21
1738244478.056994,27606,0,0,,0.0,-0.86,0.3,0.35,0.22,0.2,2.23,-0.46,-12.07,-0.9,-4.08,0.0,0.0,0.0,-7.28,-1.61,-6.36
1738244478.0725348,27607,0,0,,0.0,-0.87,0.3,0.34,0.22,0.07,2.03,-0.38,-9.98,-1.12,-4.38,0.0,0.0,0.0,-7.0,-1.68,-6.65
1738244478.0892265,27608,0,0,,0.0,-0.87,0.3,0.32,0.21,-0.05,1.85,-0.33,-8.34,-1.54,-5.02,0.0,0.0,0.0,-6.76,-1.7,-6.89
1738244478.106953,27609,0,0,,0.0,-0.88,0.3,0.31,0.2,-0.37,1.42,-0.27,-7.67,-1.8,-5.04,0.0,0.0,0.0,-6.66,-1.69,-6.99
1738244478.1221504,27610,0,0,,0.0,-0.88,0.3,0.31,0.2,-0.42,1.0,-0.21,-7.48,-2.43,-5.13,0.0,0.0,0.0,-6.5,-1.66,-7.14
1738244478.1394837,27611,0,0,,0.0,-0.88,0.3,0.3,0.2,-0.28,0.64,-0.27,-7.5,-1.95,-6.25,0.0,0.0,0.0,-6.39,-1.65,-7.24
1738244478.156742,27612,0,0,,0.0,-0.89,0.29,0.3,0.19,-0.29,0.51,-0.32,-7.73,-1.36,-6.97,0.0,0.0,0.0,-6.35,-1.65,-7.28
1738244478.1722763,27613,0,0,,0.0,-0.89,0.29,0.3,0.19,-0.41,0.43,-0.38,-7.7,-0.43,-8.65,0.0,0.0,0.0,-6.28,-1.64,-7.34
1738244478.1903083,27614,0,0,,0.0,-0.89,0.29,0.29,0.19,-0.42,0.46,-0.36,-6.98,-0.67,-8.94,0.0,0.0,0.0,-6.2,-1.63,-7.41
1738244478.2073224,27615,0,0,,0.0,-0.89,0.28,0.29,0.19,-0.33,0.45,-0.32,-6.08,-1.04,-8.47,0.0,0.0,0.0,-6.16,-1.62,-7.44
1738244478.2220612,27616,0,0,,0.0,-0.9,0.28,0.29,0.18,-0.09,0.32,-0.18,-5.25,-1.11,-7.82,0.0,0.0,0.0,-6.1,-1.63,-7.49
1738244478.240037,27617,0,0,,0.0,-0.9,0.28,0.29,0.19,0.2,0.11,-0.04,-4.08,-1.62,-7.0,0.0,0.0,0.0,-6.08,-1.65,-7.51
1738244478.2571583,27618,0,0,,0.0,-0.9,0.28,0.29,0.19,0.36,0.03,-0.02,-3.6,-2.59,-7.87,0.0,0.0,0.0,-6.07,-1.68,-7.5
1738244478.2726798,27619,0,0,,0.0,-0.89,0.28,0.29,0.19,0.41,-0.16,-0.05,-3.85,-1.05,-6.0,0.0,0.0,0.0,-6.09,-1.74,-7.48
1738244478.290135,27620,0,0,,0.0,-0.89,0.29,0.29,0.2,0.47,-0.45,0.09,-3.87,-1.33,-5.04,0.0,0.0,0.0,-6.14,-1.8,-7.42
1738244478.3074524,27621,0,0,,0.0,-0.89,0.29,0.29,0.2,0.56,-0.66,0.16,-3.97,-1.47,-3.3,0.0,0.0,0.0,-6.19,-1.83,-7.37
1738244478.3221905,27622,0,0,,0.0,-0.89,0.29,0.3,0.21,1.08,-0.97,0.34,-3.95,-1.44,-3.69,0.0,0.0,0.0,-6.33,-1.93,-7.23
1738244478.3402143,27623,0,0,,0.0,-0.88,0.29,0.3,0.22,1.15,-1.33,0.48,-4.52,-1.33,-2.99,0.0,0.0,0.0,-6.52,-2.04,-7.03
1738244478.3571131,27624,0,0,,0.0,-0.87,0.3,0.32,0.23,1.12,-1.53,0.57,-4.7,-1.48,-2.64,0.0,0.0,0.0,-6.63,-2.08,-6.91
1738244478.372341,27625,0,0,,0.0,-0.86,0.3,0.32,0.24,0.99,-1.94,0.71,-5.41,-1.53,-2.83,0.0,0.0,0.0,-6.9,-2.12,-6.62
1738244478.3902447,27626,0,0,,0.0,-0.85,0.31,0.34,0.25,0.79,-2.33,0.87,-5.74,-1.36,-3.13,0.0,0.0,0.0,-7.22,-2.11,-6.28
1738244478.4076984,27627,0,0,,0.0,-0.84,0.31,0.36,0.26,0.67,-2.5,0.93,-6.02,-1.24,-3.34,0.0,0.0,0.0,-7.56,-2.05,-5.89
1738244478.4227047,27628,0,0,,0.0,-0.83,0.31,0.38,0.26,0.31,-2.78,1.02,-6.83,-1.04,-3.71,0.0,0.0,0.0,-7.73,-1.99,-5.68
1738244478.4407558,27629,0,0,,0.0,-0.82,0.31,0.4,0.27,-0.11,-2.99,1.1,-7.93,-1.57,-4.58,0.0,0.0,0.0,-8.08,-1.83,-5.23
1738244478.4577644,27630,0,0,,0.0,-0.8,0.31,0.43,0.27,-0.3,-3.08,1.15,-8.28,-1.7,-4.71,0.0,0.0,0.0,-8.42,-1.6,-4.74
1738244478.4724388,27631,0,0,,0.0,-0.8,0.31,0.45,0.27,-0.52,-3.2,1.22,-8.77,-2.07,-5.19,0.0,0.0,0.0,-8.59,-1.48,-4.49
1738244478.490034,27632,0,0,,0.0,-0.78,0.31,0.48,0.27,-0.5,-3.25,1.23,-9.62,-2.66,-5.8,0.0,0.0,0.0,-8.88,-1.23,-3.95
1738244478.5081224,27633,0,0,,0.0,-0.76,0.31,0.5,0.27,-0.45,-3.24,1.23,-9.92,-2.87,-5.96,0.0,0.0,0.0,-9.02,-1.11,-3.68
1738244478.5225687,27634,0,0,,0.0,-0.75,0.31,0.52,0.27,-0.3,-3.21,1.21,-10.67,-2.86,-6.18,0.0,0.0,0.0,-9.25,-0.87,-3.11
1738244478.5411456,27635,0,0,,0.0,-0.73,0.31,0.54,0.27,-0.2,-3.11,1.2,-11.11,-2.56,-6.16,0.0,0.0,0.0,-9.44,-0.64,-2.55
1738244478.5576527,27636,0,0,,0.0,-0.71,0.31,0.57,0.27,-0.17,-3.02,1.19,-11.19,-2.06,-5.9,0.0,0.0,0.0,-9.59,-0.41,-2.0
1738244478.572957,27637,0,0,,0.0,-0.7,0.31,0.58,0.27,-0.25,-2.82,1.17,-11.12,-1.8,-5.66,0.0,0.0,0.0,-9.64,-0.3,-1.74
1738244478.5908046,27638,0,0,,0.0,-0.69,0.3,0.6,0.27,-0.37,-2.55,1.12,-10.81,-1.64,-5.2,0.0,0.0,0.0,-9.72,-0.08,-1.25
1738244478.6079917,27639,0,0,,0.0,-0.67,0.3,0.62,0.27,-0.43,-2.42,1.07,-10.77,-1.58,-4.94,0.0,0.0,0.0,-9.77,0.12,-0.81
1738244478.622607,27640,0,0,,0.0,-0.66,0.3,0.63,0.27,-0.52,-2.15,0.96,-10.8,-2.1,-4.25,0.0,0.0,0.0,-9.78,0.22,-0.6
1738244478.6402607,27641,0,0,,0.0,-0.65,0.3,0.65,0.27,-0.47,-1.88,0.77,-10.86,-2.26,-3.98,0.0,0.0,0.0,-9.79,0.37,-0.23
1738244478.6575959,27642,0,0,,0.0,-0.64,0.3,0.66,0.26,-0.43,-1.73,0.67,-10.66,-2.2,-3.72,0.0,0.0,0.0,-9.79,0.44,-0.06
1738244478.672979,27643,0,0,,0.0,-0.63,0.29,0.66,0.26,-0.35,-1.42,0.5,-10.21,-1.93,-3.22,0.0,0.0,0.0,-9.78,0.54,0.22
1738244478.6900132,27644,0,0,,0.0,-0.63,0.29,0.67,0.26,-0.32,-1.12,0.39,-9.54,-1.23,-2.61,0.0,0.0,0.0,-9.77,0.62,0.45
1738244478.707874,27645,0,0,,0.0,-0.62,0.29,0.68,0.26,-0.32,-0.96,0.35,-9.33,-1.06,-2.57,0.0,0.0,0.0,-9.76,0.65,0.54
1738244478.7226207,27646,0,0,,0.0,-0.62,0.29,0.68,0.26,-0.33,-0.57,0.27,-8.91,-0.75,-2.72,0.0,0.0,0.0,-9.75,0.7,0.67
1738244478.740493,27647,0,0,,0.0,-0.62,0.29,0.69,0.26,-0.3,-0.12,0.15,-8.86,-1.12,-2.81,0.0,0.0,0.0,-9.75,0.73,0.72
1738244478.7574248,27648,0,0,,0.0,-0.62,0.29,0.69,0.26,-0.27,0.11,0.08,-9.0,-0.97,-2.5,0.0,0.0,0.0,-9.75,0.74,0.71
1738244478.7731733,27649,0,0,,0.0,-0.62,0.29,0.68,0.25,-0.11,0.49,-0.06,-10.17,-0.48,0.74,0.0,0.0,0.0,-9.75,0.73,0.64
1738244478.7901673,27650,0,0,,0.0,-0.62,0.29,0.68,0.25,0.0,0.46,-0.08,-9.9,0.23,1.94,0.0,0.0,0.0,-9.76,0.72,0.55
1738244478.807487,27651,0,0,,0.0,-0.63,0.29,0.68,0.25,0.05,0.42,-0.05,-10.12,0.89,2.6,0.0,0.0,0.0,-9.76,0.71,0.51
1738244478.8229153,27652,0,0,,0.0,-0.63,0.29,0.68,0.25,0.19,0.22,0.1,-10.45,2.29,3.39,0.0,0.0,0.0,-9.76,0.72,0.45
1738244478.8398142,27653,0,0,,0.0,-0.63,0.29,0.68,0.25,0.15,0.15,0.18,-9.84,0.79,-0.1,0.0,0.0,0.0,-9.76,0.76,0.42
1738244478.8577704,27654,0,0,,0.0,-0.63,0.29,0.68,0.25,0.04,0.21,0.18,-9.96,0.27,-0.76,0.0,0.0,0.0,-9.76,0.78,0.4
1738244478.8730872,27655,0,0,,0.0,-0.63,0.29,0.67,0.25,0.04,0.31,0.11,-10.77,-0.27,0.23,0.0,0.0,0.0,-9.76,0.8,0.34
1738244478.890394,27656,0,0,,0.0,-0.63,0.3,0.67,0.25,0.04,0.31,0.09,-10.52,0.17,0.82,0.0,0.0,0.0,-9.76,0.82,0.29
1738244478.9076903,27657,0,0,,0.0,-0.63,0.3,0.67,0.25,0.01,0.25,0.11,-10.27,0.34,0.83,0.0,0.0,0.0,-9.76,0.83,0.26
1738244478.9226437,27658,0,0,,0.0,-0.63,0.3,0.67,0.25,-0.05,0.25,0.14,-9.97,-0.11,0.64,0.0,0.0,0.0,-9.76,0.85,0.22
1738244478.9401498,27659,0,0,,0.0,-0.63,0.3,0.67,0.25,-0.05,0.26,0.14,-9.7,-0.28,0.24,0.0,0.0,0.0,-9.76,0.88,0.17
1738244478.957368,27660,0,0,,0.0,-0.64,0.3,0.67,0.24,-0.01,0.3,0.14,-9.8,-0.06,0.44,0.0,0.0,0.0,-9.76,0.89,0.14
1738244478.972669,27661,0,0,,0.0,-0.64,0.3,0.67,0.24,0.03,0.3,0.18,-9.53,0.85,0.38,0.0,0.0,0.0,-9.76,0.93,0.08
1738244478.988901,27662,0,0,,0.0,-0.64,0.3,0.67,0.24,0.01,0.3,0.18,-9.62,1.12,0.39,0.0,0.0,0.0,-9.75,0.96,0.03
1738244479.007483,27663,0,0,,0.0,-0.64,0.31,0.66,0.24,0.02,0.27,0.21,-9.71,1.04,-0.08,0.0,0.0,0.0,-9.75,0.98,0.0
1738244479.021475,27664,0,0,,0.0,-0.64,0.31,0.66,0.24,0.16,0.23,0.23,-9.89,0.7,0.05,0.0,0.0,0.0,-9.75,1.02,-0.04
1738244479.039342,27665,0,0,,0.0,-0.64,0.31,0.66,0.24,0.24,0.23,0.24,-9.99,0.31,-0.04,0.0,0.0,0.0,-9.74,1.07,-0.09
1738244479.0574126,27666,0,0,,0.0,-0.64,0.32,0.66,0.24,0.37,0.22,0.24,-9.92,0.46,-0.03,0.0,0.0,0.0,-9.74,1.09,-0.11
1738244479.0726712,27667,0,0,,0.0,-0.64,0.32,0.66,0.24,0.28,0.23,0.24,-9.93,0.83,0.33,0.0,0.0,0.0,-9.73,1.14,-0.16
1738244479.0892954,27668,0,0,,0.0,-0.64,0.32,0.66,0.24,0.2,0.22,0.25,-9.86,0.94,0.36,0.0,0.0,0.0,-9.73,1.18,-0.21
1738244479.1075163,27669,0,0,,0.0,-0.64,0.32,0.66,0.23,-0.0,0.25,0.25,-9.68,0.82,0.07,0.0,0.0,0.0,-9.72,1.21,-0.23
1738244479.1221492,27670,0,0,,0.0,-0.64,0.32,0.66,0.23,-0.15,0.28,0.23,-9.53,1.04,-0.45,0.0,0.0,0.0,-9.72,1.25,-0.28
1738244479.140205,27671,0,0,,0.0,-0.64,0.32,0.66,0.23,-0.19,0.3,0.22,-9.77,1.25,-0.3,0.0,0.0,0.0,-9.71,1.29,-0.33
1738244479.1574554,27672,0,0,,0.0,-0.64,0.32,0.66,0.23,-0.3,0.27,0.21,-9.66,0.99,-0.55,0.0,0.0,0.0,-9.71,1.31,-0.35
1738244479.1727743,27673,0,0,,0.0,-0.64,0.32,0.66,0.22,-0.32,0.24,0.2,-9.84,1.31,-0.18,0.0,0.0,0.0,-9.7,1.35,-0.39
1738244479.19058,27674,0,0,,0.0,-0.65,0.32,0.66,0.22,-0.29,0.24,0.18,-9.7,0.61,0.03,0.0,0.0,0.0,-9.69,1.38,-0.42
1738244479.207583,27675,0,0,,0.0,-0.65,0.32,0.66,0.22,-0.21,0.23,0.18,-9.74,0.94,-0.2,0.0,0.0,0.0,-9.69,1.39,-0.43
1738244479.2238193,27676,0,0,,0.0,-0.65,0.32,0.65,0.22,-0.1,0.27,0.13,-10.03,0.8,-0.05,0.0,0.0,0.0,-9.69,1.41,-0.48
1738244479.2416687,27677,0,0,,0.0,-0.65,0.33,0.65,0.21,0.0,0.29,0.09,-9.75,1.08,-0.29,0.0,0.0,0.0,-9.68,1.43,-0.53
1738244479.2582104,27678,0,0,,0.0,-0.65,0.33,0.65,0.21,0.03,0.32,0.06,-9.72,1.54,-0.23,0.0,0.0,0.0,-9.68,1.44,-0.59
1738244479.2741418,27679,0,0,,0.0,-0.65,0.33,0.65,0.21,0.02,0.35,-0.01,-9.5,1.63,-0.51,0.0,0.0,0.0,-9.67,1.44,-0.63
1738244479.2912064,27680,0,0,,0.0,-0.65,0.33,0.65,0.21,-0.0,0.39,-0.06,-9.45,1.48,-0.48,0.0,0.0,0.0,-9.67,1.43,-0.7
1738244479.3080463,27681,0,0,,0.0,-0.66,0.33,0.64,0.21,-0.05,0.41,-0.08,-9.35,1.21,-1.03,0.0,0.0,0.0,-9.67,1.42,-0.74
1738244479.3244753,27682,0,0,,0.0,-0.66,0.33,0.64,0.21,-0.03,0.41,-0.11,-9.79,1.08,-0.79,0.0,0.0,0.0,-9.67,1.4,-0.82
1738244479.3426583,27683,0,0,,0.0,-0.66,0.33,0.64,0.21,-0.06,0.39,-0.11,-9.77,0.89,-0.88,0.0,0.0,0.0,-9.66,1.38,-0.89
1738244479.3595698,27684,0,0,,0.0,-0.66,0.33,0.64,0.21,-0.04,0.37,-0.11,-9.8,0.81,-0.62,0.0,0.0,0.0,-9.66,1.37,-0.95
1738244479.37426,27685,0,0,,0.0,-0.67,0.33,0.64,0.21,0.03,0.31,-0.08,-9.73,0.48,-0.73,0.0,0.0,0.0,-9.66,1.36,-0.98
1738244479.391741,27686,0,0,,0.0,-0.67,0.33,0.63,0.21,0.08,0.3,-0.03,-9.49,0.75,-1.31,0.0,0.0,0.0,-9.65,1.35,-1.04
1738244479.4087076,27687,0,0,,0.0,-0.67,0.33,0.63,0.21,0.07,0.31,-0.01,-9.74,0.7,-0.82,0.0,0.0,0.0,-9.65,1.33,-1.09
1738244479.423881,27688,0,0,,0.0,-0.67,0.33,0.63,0.21,0.07,0.33,-0.02,-9.6,1.18,-1.0,0.0,0.0,0.0,-9.65,1.32,-1.12
1738244479.4411616,27689,0,0,,0.0,-0.67,0.33,0.63,0.21,0.05,0.32,0.01,-9.65,1.19,-0.66,0.0,0.0,0.0,-9.64,1.32,-1.18
1738244479.4588633,27690,0,0,,0.0,-0.67,0.33,0.63,0.21,0.06,0.33,0.0,-9.63,1.29,-0.72,0.0,0.0,0.0,-9.64,1.32,-1.21
1738244479.4737597,27691,0,0,,0.0,-0.67,0.33,0.63,0.21,0.01,0.35,0.01,-9.74,1.48,-0.74,0.0,0.0,0.0,-9.63,1.32,-1.28
1738244479.4910924,27692,0,0,,0.0,-0.68,0.33,0.62,0.21,-0.07,0.36,-0.04,-9.79,0.86,-1.13,0.0,0.0,0.0,-9.62,1.31,-1.34
1738244479.508354,27693,0,0,,0.0,-0.68,0.33,0.62,0.2,-0.07,0.38,-0.06,-9.73,0.96,-1.3,0.0,0.0,0.0,-9.61,1.31,-1.38
1738244479.523569,27694,0,0,,0.0,-0.68,0.33,0.62,0.2,-0.05,0.37,-0.09,-9.73,0.9,-1.39,0.0,0.0,0.0,-9.61,1.29,-1.45
1738244479.5411513,27695,0,0,,0.0,-0.68,0.33,0.62,0.2,-0.03,0.36,-0.1,-9.69,1.09,-1.22,0.0,0.0,0.0,-9.6,1.27,-1.51
1738244479.5583012,27696,0,0,,0.0,-0.69,0.33,0.62,0.2,-0.03,0.36,-0.1,-9.35,0.92,-1.94,0.0,0.0,0.0,-9.59,1.26,-1.55
1738244479.5738556,27697,0,0,,0.0,-0.69,0.33,0.61,0.2,-0.05,0.36,-0.11,-9.4,0.82,-1.9,0.0,0.0,0.0,-9.59,1.25,-1.61
1738244479.5910795,27698,0,0,,0.0,-0.69,0.33,0.61,0.2,-0.04,0.38,-0.11,-9.74,0.86,-1.25,0.0,0.0,0.0,-9.58,1.23,-1.68
1738244479.608769,27699,0,0,,0.0,-0.69,0.33,0.61,0.2,-0.03,0.38,-0.13,-9.63,1.02,-1.34,0.0,0.0,0.0,-9.57,1.22,-1.71
1738244479.624375,27700,0,0,,0.0,-0.7,0.33,0.61,0.2,-0.01,0.38,-0.12,-9.64,0.86,-1.35,0.0,0.0,0.0,-9.56,1.19,-1.78
1738244479.643604,27701,0,0,,0.0,-0.7,0.33,0.6,0.2,-0.01,0.38,-0.12,-9.3,0.78,-2.19,0.0,0.0,0.0,-9.55,1.17,-1.85
1738244479.6595418,27702,0,0,,0.0,-0.7,0.33,0.6,0.2,-0.02,0.38,-0.12,-9.72,0.8,-1.36,0.0,0.0,0.0,-9.54,1.15,-1.92
1738244479.675463,27703,0,0,,0.0,-0.7,0.33,0.6,0.2,-0.0,0.4,-0.14,-9.48,0.61,-2.01,0.0,0.0,0.0,-9.54,1.13,-1.96
1738244479.6936302,27704,0,0,,0.0,-0.7,0.33,0.6,0.2,0.04,0.43,-0.17,-9.62,0.77,-1.87,0.0,0.0,0.0,-9.52,1.1,-2.04
1738244479.710015,27705,0,0,,0.0,-0.71,0.33,0.59,0.2,0.06,0.42,-0.17,-9.59,0.64,-2.03,0.0,0.0,0.0,-9.51,1.06,-2.11
1738244479.724618,27706,0,0,,0.0,-0.71,0.33,0.59,0.2,0.09,0.43,-0.18,-9.63,0.86,-1.79,0.0,0.0,0.0,-9.51,1.04,-2.15
1738244479.7420805,27707,0,0,,0.0,-0.71,0.33,0.59,0.2,0.1,0.44,-0.19,-9.85,1.01,-1.46,0.0,0.0,0.0,-9.49,0.99,-2.22
1738244479.7591147,27708,0,0,,0.0,-0.71,0.33,0.58,0.2,0.1,0.46,-0.22,-9.42,1.08,-2.11,0.0,0.0,0.0,-9.48,0.95,-2.31
1738244479.773964,27709,0,0,,0.0,-0.72,0.33,0.58,0.2,0.08,0.47,-0.23,-9.84,0.57,-1.92,0.0,0.0,0.0,-9.47,0.93,-2.35
1738244479.790617,27710,0,0,,0.0,-0.72,0.33,0.58,0.2,0.08,0.49,-0.25,-9.62,0.7,-2.04,0.0,0.0,0.0,-9.45,0.87,-2.44
1738244479.8088903,27711,0,0,,0.0,-0.72,0.33,0.57,0.2,0.13,0.51,-0.27,-9.49,0.51,-2.33,0.0,0.0,0.0,-9.44,0.85,-2.49
1738244479.8240266,27712,0,0,,0.0,-0.72,0.33,0.57,0.2,0.14,0.55,-0.31,-9.59,0.85,-2.37,0.0,0.0,0.0,-9.42,0.79,-2.59
1738244479.841156,27713,0,0,,0.0,-0.73,0.33,0.57,0.2,0.13,0.59,-0.33,-9.72,0.49,-2.58,0.0,0.0,0.0,-9.39,0.72,-2.7
1738244479.8586404,27714,0,0,,0.0,-0.73,0.33,0.56,0.2,0.14,0.59,-0.36,-9.79,0.5,-2.89,0.0,0.0,0.0,-9.37,0.65,-2.81
1738244479.8738394,27715,0,0,,0.0,-0.74,0.33,0.56,0.2,0.14,0.64,-0.4,-10.48,0.56,-2.55,0.0,0.0,0.0,-9.35,0.61,-2.87
1738244479.8900237,27716,0,0,,0.0,-0.74,0.32,0.55,0.2,0.11,0.64,-0.43,-10.61,0.71,-2.26,0.0,0.0,0.0,-9.32,0.52,-2.99
1738244479.9086251,27717,0,0,,0.0,-0.75,0.32,0.55,0.21,0.08,0.65,-0.45,-10.43,0.16,-2.12,0.0,0.0,0.0,-9.3,0.48,-3.04
1738244479.9237738,27718,0,0,,0.0,-0.75,0.32,0.54,0.21,0.13,0.67,-0.46,-10.17,-0.71,-2.81,0.0,0.0,0.0,-9.27,0.39,-3.16
1738244479.9403327,27719,0,0,,0.0,-0.75,0.32,0.54,0.21,0.13,0.71,-0.49,-9.97,-0.36,-2.74,0.0,0.0,0.0,-9.23,0.29,-3.29
1738244479.9585907,27720,0,0,,0.0,-0.76,0.32,0.53,0.21,0.1,0.74,-0.53,-10.07,-0.62,-2.68,0.0,0.0,0.0,-9.2,0.24,-3.36
1738244479.973328,27721,0,0,,0.0,-0.76,0.31,0.53,0.21,0.13,0.79,-0.6,-9.74,-0.24,-2.66,0.0,0.0,0.0,-9.15,0.13,-3.5
1738244479.9895723,27722,0,0,,0.0,-0.77,0.31,0.52,0.21,0.17,0.81,-0.62,-9.46,-0.06,-2.79,0.0,0.0,0.0,-9.1,0.0,-3.65
1738244480.0090678,27723,0,0,,0.0,-0.77,0.31,0.51,0.21,0.2,0.89,-0.69,-9.59,0.22,-2.58,0.0,0.0,0.0,-9.06,-0.05,-3.72
1738244480.0242426,27724,0,0,,0.0,-0.78,0.31,0.51,0.21,0.23,0.96,-0.73,-9.54,-0.12,-2.92,0.0,0.0,0.0,-8.99,-0.2,-3.89
1738244480.040124,27725,0,0,,0.0,-0.78,0.3,0.5,0.21,0.22,1.0,-0.77,-9.13,-0.27,-3.35,0.0,0.0,0.0,-8.91,-0.35,-4.06
1738244480.0588198,27726,0,0,,0.0,-0.79,0.3,0.49,0.22,0.25,1.09,-0.81,-9.23,-0.6,-3.29,0.0,0.0,0.0,-8.86,-0.43,-4.16
1738244480.0742624,27727,0,0,,0.0,-0.8,0.3,0.48,0.22,0.4,1.17,-0.83,-9.1,-0.48,-3.56,0.0,0.0,0.0,-8.76,-0.6,-4.35
1738244480.0900733,27728,0,0,,0.0,-0.8,0.3,0.47,0.22,0.46,1.22,-0.82,-9.03,-0.66,-3.51,0.0,0.0,0.0,-8.64,-0.78,-4.55
1738244480.10925,27729,0,0,,0.0,-0.81,0.29,0.45,0.23,0.53,1.34,-0.8,-8.93,-0.71,-4.24,0.0,0.0,0.0,-8.58,-0.87,-4.66
1738244480.1237721,27730,0,0,,0.0,-0.81,0.29,0.45,0.23,0.5,1.51,-0.78,-9.52,-0.76,-3.5,0.0,0.0,0.0,-8.43,-1.05,-4.89
1738244480.1404443,27731,0,0,,0.0,-0.82,0.29,0.43,0.23,0.51,1.58,-0.76,-9.46,-0.8,-3.86,0.0,0.0,0.0,-8.25,-1.22,-5.14
1738244480.1591854,27732,0,0,,0.0,-0.83,0.29,0.41,0.23,0.44,1.73,-0.71,-10.01,-1.04,-3.39,0.0,0.0,0.0,-8.16,-1.3,-5.28
1738244480.1738198,27733,0,0,,0.0,-0.83,0.29,0.4,0.23,0.38,1.88,-0.66,-10.82,-1.22,-3.28,0.0,0.0,0.0,-7.94,-1.44,-5.55
1738244480.1889422,27734,0,0,,0.0,-0.84,0.29,0.39,0.23,0.32,1.95,-0.64,-11.2,-1.14,-3.21,0.0,0.0,0.0,-7.71,-1.57,-5.85
1738244480.2093487,27735,0,0,,0.0,-0.85,0.29,0.37,0.23,0.23,2.09,-0.59,-12.47,-1.37,-3.33,0.0,0.0,0.0,-7.58,-1.63,-6.0
1738244480.2240705,27736,0,0,,0.0,-0.86,0.29,0.36,0.23,0.17,2.14,-0.57,-12.97,-0.97,-3.44,0.0,0.0,0.0,-7.3,-1.73,-6.3
1738244480.240074,27737,0,0,,0.0,-0.87,0.29,0.34,0.22,0.13,2.11,-0.57,-12.5,-0.83,-3.72,0.0,0.0,0.0,-7.02,-1.82,-6.59
1738244480.2592316,27738,0,0,,0.0,-0.87,0.29,0.32,0.22,-0.15,1.95,-0.57,-11.2,-0.39,-3.72,0.0,0.0,0.0,-6.89,-1.85,-6.72
1738244480.2740643,27739,0,0,,0.0,-0.88,0.29,0.32,0.21,-0.6,1.59,-0.52,-9.25,-0.56,-3.57,0.0,0.0,0.0,-6.65,-1.86,-6.96
1738244480.289535,27740,0,0,,0.0,-0.88,0.29,0.31,0.2,-0.78,1.35,-0.45,-9.07,-0.81,-3.83,0.0,0.0,0.0,-6.46,-1.79,-7.14
1738244480.3092415,27741,0,0,,0.0,-0.89,0.28,0.3,0.19,-0.98,0.86,-0.35,-7.51,-1.53,-7.19,0.0,0.0,0.0,-6.4,-1.75,-7.21
1738244480.3244977,27742,0,0,,0.0,-0.89,0.28,0.3,0.19,-1.07,0.56,-0.35,-7.45,-1.76,-9.74,0.0,0.0,0.0,-6.3,-1.64,-7.32
1738244480.3405173,27743,0,0,,0.0,-0.9,0.28,0.3,0.18,-0.99,0.58,-0.39,-7.01,-1.6,-10.95,0.0,0.0,0.0,-6.2,-1.56,-7.42
1738244480.3589773,27744,0,0,,0.0,-0.9,0.27,0.29,0.18,-0.51,0.7,-0.47,-6.07,-1.65,-10.64,0.0,0.0,0.0,-6.08,-1.57,-7.52
1738244480.374335,27745,0,0,,0.0,-0.9,0.27,0.29,0.18,0.15,0.69,-0.49,-4.96,-1.5,-7.89,0.0,0.0,0.0,-6.03,-1.61,-7.56
1738244480.3904476,27746,0,0,,0.0,-0.9,0.27,0.28,0.18,0.49,0.59,-0.45,-4.64,-1.37,-6.93,0.0,0.0,0.0,-5.94,-1.75,-7.6
1738244480.4091604,27747,0,0,,0.0,-0.9,0.27,0.28,0.19,0.92,0.3,-0.29,-3.47,-0.63,-5.32,0.0,0.0,0.0,-5.91,-1.83,-7.6
1738244480.424965,27748,0,0,,0.0,-0.9,0.27,0.28,0.2,0.96,-0.08,-0.13,-2.83,-0.64,-5.46,0.0,0.0,0.0,-5.9,-1.99,-7.57
1738244480.4409988,27749,0,0,,0.0,-0.9,0.27,0.28,0.2,0.81,-0.23,-0.07,-2.72,-0.72,-4.26,0.0,0.0,0.0,-5.95,-2.1,-7.5
1738244480.4596918,27750,0,0,,0.0,-0.9,0.27,0.28,0.21,0.45,-0.6,0.08,-2.66,-1.0,-3.96,0.0,0.0,0.0,-6.05,-2.14,-7.4
1738244480.4746814,27751,0,0,,0.0,-0.89,0.27,0.29,0.21,0.19,-0.98,0.23,-3.27,-1.91,-3.51,0.0,0.0,0.0,-6.13,-2.14,-7.34
1738244480.4897563,27752,0,0,,0.0,-0.89,0.27,0.3,0.21,0.15,-1.19,0.29,-3.63,-1.91,-3.38,0.0,0.0,0.0,-6.32,-2.13,-7.18
1738244480.5095243,27753,0,0,,0.0,-0.88,0.27,0.31,0.22,0.17,-1.58,0.39,-4.23,-1.85,-2.92,0.0,0.0,0.0,-6.57,-2.1,-6.96
1738244480.524424,27754,0,0,,0.0,-0.88,0.27,0.32,0.22,0.27,-1.96,0.51,-5.1,-1.86,-3.37,0.0,0.0,0.0,-6.71,-2.09,-6.83
1738244480.5405395,27755,0,0,,0.0,-0.87,0.28,0.34,0.23,0.34,-2.15,0.58,-5.37,-1.71,-3.3,0.0,0.0,0.0,-7.02,-2.05,-6.52
1738244480.5593815,27756,0,0,,0.0,-0.86,0.28,0.36,0.24,0.46,-2.51,0.78,-5.88,-1.39,-3.62,0.0,0.0,0.0,-7.37,-1.99,-6.14
1738244480.5748131,27757,0,0,,0.0,-0.85,0.28,0.37,0.24,0.43,-2.81,0.97,-6.31,-1.21,-4.04,0.0,0.0,0.0,-7.55,-1.95,-5.93
1738244480.5897775,27758,0,0,,0.0,-0.84,0.28,0.4,0.25,0.33,-2.93,1.06,-6.73,-1.2,-4.6,0.0,0.0,0.0,-7.92,-1.81,-5.47
1738244480.6091387,27759,0,0,,0.0,-0.82,0.28,0.43,0.25,0.03,-3.13,1.18,-7.51,-1.42,-4.95,0.0,0.0,0.0,-8.11,-1.72,-5.23
1738244480.624758,27760,0,0,,0.0,-0.81,0.29,0.44,0.25,-0.26,-3.25,1.26,-8.45,-2.18,-5.76,0.0,0.0,0.0,-8.46,-1.51,-4.72
1738244480.639878,27761,0,0,,0.0,-0.79,0.29,0.47,0.25,-0.32,-3.27,1.29,-8.68,-2.3,-5.85,0.0,0.0,0.0,-8.62,-1.39,-4.45
1738244480.6597385,27762,0,0,,0.0,-0.78,0.29,0.5,0.25,-0.31,-3.29,1.3,-9.72,-2.9,-5.87,0.0,0.0,0.0,-8.92,-1.14,-3.9
1738244480.675444,27763,0,0,,0.0,-0.77,0.29,0.52,0.25,-0.15,-3.29,1.3,-10.47,-2.94,-5.67,0.0,0.0,0.0,-9.17,-0.9,-3.33
1738244480.6899061,27764,0,0,,0.0,-0.75,0.29,0.54,0.26,-0.07,-3.28,1.3,-11.16,-2.79,-5.45,0.0,0.0,0.0,-9.39,-0.66,-2.74
1738244480.7097886,27765,0,0,,0.0,-0.73,0.29,0.57,0.26,0.05,-3.22,1.31,-11.57,-2.44,-5.21,0.0,0.0,0.0,-9.48,-0.54,-2.44
1738244480.7243154,27766,0,0,,0.0,-0.71,0.29,0.58,0.26,0.09,-3.1,1.34,-11.71,-1.79,-5.12,0.0,0.0,0.0,-9.62,-0.3,-1.86
1738244480.7402961,27767,0,0,,0.0,-0.69,0.29,0.6,0.26,0.06,-3.0,1.35,-11.66,-1.62,-5.05,0.0,0.0,0.0,-9.71,-0.05,-1.31
1738244480.7596543,27768,0,0,,0.0,-0.67,0.29,0.63,0.26,-0.11,-2.75,1.33,-11.35,-1.44,-4.58,0.0,0.0,0.0,-9.74,0.07,-1.05
1738244480.7742026,27769,0,0,,0.0,-0.67,0.29,0.64,0.26,-0.35,-2.49,1.23,-11.09,-1.8,-4.26,0.0,0.0,0.0,-9.78,0.31,-0.57
1738244480.7900717,27770,0,0,,0.0,-0.65,0.29,0.65,0.25,-0.39,-2.34,1.16,-11.12,-1.91,-4.21,0.0,0.0,0.0,-9.79,0.42,-0.34
1738244480.8101358,27771,0,0,,0.0,-0.63,0.29,0.67,0.25,-0.34,-2.05,0.99,-11.05,-2.24,-3.83,0.0,0.0,0.0,-9.78,0.62,0.05
1738244480.8246336,27772,0,0,,0.0,-0.63,0.29,0.68,0.25,-0.21,-1.78,0.81,-10.28,-2.27,-3.75,0.0,0.0,0.0,-9.76,0.78,0.4
1738244480.8396108,27773,0,0,,0.0,-0.62,0.29,0.69,0.25,-0.11,-1.62,0.72,-9.98,-1.99,-3.79,0.0,0.0,0.0,-9.73,0.91,0.69
1738244480.859994,27774,0,0,,0.0,-0.61,0.29,0.7,0.25,0.06,-1.26,0.56,-9.5,-1.51,-3.9,0.0,0.0,0.0,-9.71,1.01,0.91
1738244480.8743227,27775,0,0,,0.0,-0.6,0.29,0.7,0.25,0.04,-0.86,0.4,-8.7,-0.86,-3.7,0.0,0.0,0.0,-9.69,1.04,0.99
1738244480.8897376,27776,0,0,,0.0,-0.6,0.29,0.7,0.25,-0.02,-0.62,0.32,-8.71,-1.04,-3.73,0.0,0.0,0.0,-9.68,1.07,1.05
1738244480.909775,27777,0,0,,0.0,-0.6,0.29,0.7,0.25,-0.15,-0.14,0.12,-9.29,-0.58,-1.48,0.0,0.0,0.0,-9.68,1.1,1.1
1738244480.9242527,27778,0,0,,0.0,-0.6,0.29,0.7,0.25,-0.28,0.12,-0.02,-9.81,0.77,0.35,0.0,0.0,0.0,-9.68,1.1,1.09
1738244480.9397116,27779,0,0,,0.0,-0.6,0.29,0.7,0.25,-0.33,0.17,-0.06,-10.99,2.31,3.98,0.0,0.0,0.0,-9.68,1.09,1.08
1738244480.9595697,27780,0,0,,0.0,-0.6,0.29,0.71,0.24,-0.32,-0.01,0.06,-11.95,4.29,7.1,0.0,0.0,0.0,-9.68,1.08,1.08
1738244480.9743147,27781,0,0,,0.0,-0.6,0.29,0.71,0.24,-0.36,-0.36,0.38,-9.87,1.17,1.11,0.0,0.0,0.0,-9.67,1.13,1.14
1738244480.9896748,27782,0,0,,0.0,-0.6,0.28,0.71,0.24,-0.52,-0.32,0.39,-9.54,-0.09,0.41,0.0,0.0,0.0,-9.65,1.19,1.19
1738244481.0100253,27783,0,0,,0.0,-0.6,0.28,0.71,0.23,-0.41,0.03,0.22,-10.12,-0.59,1.78,0.0,0.0,0.0,-9.65,1.22,1.18
1738244481.0242994,27784,0,0,,0.0,-0.6,0.28,0.71,0.23,-0.16,0.24,0.14,-10.07,0.04,2.01,0.0,0.0,0.0,-9.65,1.23,1.16
1738244481.039988,27785,0,0,,0.0,-0.6,0.28,0.71,0.23,-0.15,0.28,0.11,-9.62,0.67,2.48,0.0,0.0,0.0,-9.66,1.24,1.14
1738244481.0601175,27786,0,0,,0.0,-0.6,0.28,0.71,0.23,-0.14,0.38,0.08,-8.97,1.35,1.71,0.0,0.0,0.0,-9.66,1.25,1.08
1738244481.074261,27787,0,0,,0.0,-0.61,0.29,0.71,0.23,-0.09,0.52,0.06,-9.3,1.59,1.32,0.0,0.0,0.0,-9.67,1.26,0.99
1738244481.0898666,27788,0,0,,0.0,-0.61,0.29,0.7,0.22,-0.03,0.55,0.06,-9.33,1.52,1.07,0.0,0.0,0.0,-9.68,1.27,0.88
1738244481.1099682,27789,0,0,,0.0,-0.61,0.29,0.7,0.22,0.07,0.54,0.09,-9.6,1.31,1.08,0.0,0.0,0.0,-9.68,1.29,0.78
1738244481.1244042,27790,0,0,,0.0,-0.61,0.29,0.7,0.22,0.23,0.5,0.14,-9.54,0.98,0.75,0.0,0.0,0.0,-9.69,1.31,0.73
1738244481.1398308,27791,0,0,,0.0,-0.62,0.3,0.69,0.22,0.27,0.5,0.15,-9.79,0.86,1.16,0.0,0.0,0.0,-9.69,1.32,0.68
1738244481.1603098,27792,0,0,,0.0,-0.62,0.3,0.69,0.22,0.2,0.51,0.15,-9.82,0.77,0.58,0.0,0.0,0.0,-9.69,1.37,0.53
1738244481.1748035,27793,0,0,,0.0,-0.62,0.3,0.69,0.22,0.09,0.5,0.14,-9.81,0.59,0.31,0.0,0.0,0.0,-9.69,1.38,0.48
1738244481.1903944,27794,0,0,,0.0,-0.62,0.3,0.69,0.22,0.02,0.47,0.14,-9.84,0.21,0.22,0.0,0.0,0.0,-9.69,1.41,0.4
1738244481.210389,27795,0,0,,0.0,-0.62,0.31,0.68,0.22,0.11,0.44,0.15,-9.9,0.23,0.26,0.0,0.0,0.0,-9.69,1.44,0.31
1738244481.2251127,27796,0,0,,0.0,-0.63,0.31,0.68,0.22,0.29,0.43,0.14,-9.95,0.84,0.63,0.0,0.0,0.0,-9.69,1.45,0.27
1738244481.240569,27797,0,0,,0.0,-0.63,0.31,0.68,0.22,0.39,0.42,0.14,-9.55,1.04,0.03,0.0,0.0,0.0,-9.69,1.48,0.17
1738244481.2602456,27798,0,0,,0.0,-0.63,0.32,0.68,0.22,0.38,0.46,0.11,-9.62,1.76,0.45,0.0,0.0,0.0,-9.69,1.5,0.08
