Time,header.seq,header.stamp.secs,header.stamp.nsecs,header.frame_id,time_stamp,quat_x,quat_y,quat_z,quat_w,gyro_x,gyro_y,gyro_z,accel_x,accel_y,accel_z,euler_x,euler_y,euler_z,gravity_x,gravity_y,gravity_z
1738244948.7208972,55630,0,0,,0.0,-0.43,0.39,0.65,0.48,-0.54,0.05,-0.9,-5.84,1.52,6.92,0.0,0.0,0.0,-9.25,0.95,3.08
1738244948.7380898,55631,0,0,,0.0,-0.44,0.38,0.65,0.49,-0.51,-0.22,-1.07,-5.56,2.08,6.32,0.0,0.0,0.0,-9.25,0.73,3.15
1738244948.7548363,55632,0,0,,0.0,-0.44,0.38,0.65,0.49,-0.3,-0.69,-1.06,-5.01,3.12,5.69,0.0,0.0,0.0,-9.22,0.54,3.29
1738244948.7708352,55633,0,0,,0.0,-0.44,0.37,0.65,0.5,-0.1,-0.99,-0.58,-4.42,3.06,4.95,0.0,0.0,0.0,-9.19,0.48,3.38
1738244948.7873957,55634,0,0,,0.0,-0.43,0.37,0.66,0.5,-0.01,-1.09,-0.3,-3.96,2.57,4.79,0.0,0.0,0.0,-9.11,0.45,3.58
1738244948.8051224,55635,0,0,,0.0,-0.42,0.36,0.66,0.51,0.15,-1.32,0.13,-4.0,2.17,4.92,0.0,0.0,0.0,-9.06,0.47,3.7
1738244948.82145,55636,0,0,,0.0,-0.41,0.36,0.67,0.51,0.25,-1.64,0.37,-4.2,1.68,5.34,0.0,0.0,0.0,-8.95,0.55,3.96
1738244948.8379169,55637,0,0,,0.0,-0.4,0.35,0.67,0.51,0.29,-1.85,0.47,-4.33,1.18,4.94,0.0,0.0,0.0,-8.78,0.66,4.29
1738244948.8552008,55638,0,0,,0.0,-0.38,0.35,0.68,0.52,0.42,-2.21,0.69,-4.34,1.25,4.62,0.0,0.0,0.0,-8.68,0.74,4.48
1738244948.8711758,55639,0,0,,0.0,-0.37,0.34,0.69,0.52,0.5,-2.37,1.0,-4.71,1.23,4.16,0.0,0.0,0.0,-8.46,0.93,4.86
1738244948.888162,55640,0,0,,0.0,-0.34,0.34,0.7,0.52,0.53,-2.38,1.18,-5.34,0.83,4.7,0.0,0.0,0.0,-8.2,1.19,5.23
1738244948.9050725,55641,0,0,,0.0,-0.32,0.34,0.72,0.52,0.64,-2.4,1.48,-5.76,0.35,5.05,0.0,0.0,0.0,-7.9,1.5,5.59
1738244948.9212444,55642,0,0,,0.0,-0.3,0.34,0.72,0.52,0.85,-2.52,1.54,-7.54,0.76,6.23,0.0,0.0,0.0,-7.74,1.66,5.77
1738244948.9375927,55643,0,0,,0.0,-0.28,0.33,0.74,0.52,0.84,-2.62,1.58,-7.8,1.52,5.59,0.0,0.0,0.0,-7.38,2.0,6.13
1738244948.9554307,55644,0,0,,0.0,-0.25,0.33,0.75,0.52,0.71,-2.67,1.85,-8.08,2.02,5.21,0.0,0.0,0.0,-7.18,2.17,6.31
1738244948.9715414,55645,0,0,,0.0,-0.23,0.33,0.76,0.51,0.55,-2.53,2.24,-8.55,2.03,5.26,0.0,0.0,0.0,-6.76,2.53,6.63
1738244948.9879932,55646,0,0,,0.0,-0.2,0.32,0.77,0.5,0.48,-2.48,2.38,-9.17,1.07,6.04,0.0,0.0,0.0,-6.31,2.9,6.92
1738244949.0054874,55647,0,0,,0.0,-0.18,0.32,0.79,0.49,0.44,-2.5,2.48,-9.07,0.36,5.97,0.0,0.0,0.0,-6.07,3.08,7.05
1738244949.0215614,55648,0,0,,0.0,-0.16,0.32,0.8,0.49,0.56,-2.54,2.29,-10.21,0.79,7.65,0.0,0.0,0.0,-5.57,3.42,7.3
1738244949.0380633,55649,0,0,,0.0,-0.13,0.31,0.81,0.48,0.58,-2.61,2.18,-10.51,1.26,7.87,0.0,0.0,0.0,-5.03,3.72,7.54
1738244949.0552273,55650,0,0,,0.0,-0.1,0.31,0.82,0.48,0.57,-2.78,2.04,-10.25,0.6,7.24,0.0,0.0,0.0,-4.76,3.86,7.65
1738244949.0719283,55651,0,0,,0.0,-0.09,0.31,0.82,0.47,0.69,-2.58,1.75,-11.4,1.45,7.85,0.0,0.0,0.0,-4.22,4.12,7.83
1738244949.0884786,55652,0,0,,0.0,-0.06,0.3,0.83,0.47,0.66,-2.51,1.6,-11.53,1.91,7.83,0.0,0.0,0.0,-3.72,4.33,7.97
1738244949.106035,55653,0,0,,0.0,-0.04,0.29,0.84,0.46,0.42,-2.3,1.42,-11.53,2.49,6.65,0.0,0.0,0.0,-3.48,4.41,8.03
1738244949.1222475,55654,0,0,,0.0,-0.03,0.29,0.84,0.46,0.21,-1.85,1.3,-10.77,1.65,5.41,0.0,0.0,0.0,-3.05,4.53,8.13
1738244949.138739,55655,0,0,,0.0,-0.01,0.29,0.84,0.46,0.15,-1.5,1.2,-11.61,1.61,6.31,0.0,0.0,0.0,-2.72,4.62,8.2
1738244949.156233,55656,0,0,,0.0,-0.0,0.28,0.85,0.45,-0.12,-1.15,1.03,-11.13,0.48,5.96,0.0,0.0,0.0,-2.47,4.63,8.27
1738244949.17304,55657,0,0,,0.0,0.0,0.28,0.85,0.45,-0.45,-0.76,0.54,-10.25,0.17,5.52,0.0,0.0,0.0,-2.39,4.61,8.31
1738244949.1886287,55658,0,0,,0.0,0.0,0.27,0.85,0.45,-0.7,-0.53,0.22,-9.21,-0.55,4.91,0.0,0.0,0.0,-2.31,4.49,8.4
1738244949.2061648,55659,0,0,,0.0,-0.0,0.26,0.85,0.45,-0.88,-0.08,-0.24,-8.61,-0.19,4.15,0.0,0.0,0.0,-2.35,4.33,8.47
1738244949.2231717,55660,0,0,,0.0,-0.01,0.26,0.85,0.45,-0.89,0.64,-0.44,-9.32,0.6,4.6,0.0,0.0,0.0,-2.42,4.24,8.49
1738244949.2391362,55661,0,0,,0.0,-0.02,0.26,0.85,0.45,-0.84,0.95,-0.39,-10.56,-0.12,4.7,0.0,0.0,0.0,-2.62,4.09,8.51
1738244949.2565227,55662,0,0,,0.0,-0.03,0.26,0.85,0.45,-0.72,1.21,-0.33,-9.76,-0.86,4.72,0.0,0.0,0.0,-2.85,3.96,8.5
1738244949.273501,55663,0,0,,0.0,-0.04,0.25,0.85,0.45,-1.12,1.08,-0.42,-9.45,4.19,12.1,0.0,0.0,0.0,-2.95,3.86,8.51
1738244949.2889438,55664,0,0,,0.0,-0.05,0.24,0.86,0.45,-1.0,-1.0,0.21,7.01,5.36,8.71,0.0,0.0,0.0,-2.91,3.64,8.62
1738244949.3058264,55665,0,0,,0.0,-0.04,0.24,0.86,0.46,0.07,-0.97,0.0,7.28,10.86,4.8,0.0,0.0,0.0,-2.88,3.59,8.65
1738244949.3230016,55666,0,0,,0.0,-0.05,0.24,0.86,0.46,-0.72,0.83,-0.37,-9.56,2.21,9.61,0.0,0.0,0.0,-2.96,3.52,8.65
1738244949.3385458,55667,0,0,,0.0,-0.05,0.23,0.86,0.46,-0.62,0.47,-0.23,-3.7,0.88,9.78,0.0,0.0,0.0,-3.01,3.44,8.67
1738244949.3560386,55668,0,0,,0.0,-0.05,0.23,0.86,0.46,0.04,-0.12,0.05,-2.19,2.94,9.1,0.0,0.0,0.0,-3.0,3.44,8.67
1738244949.3733292,55669,0,0,,0.0,-0.05,0.24,0.86,0.46,0.22,0.17,0.11,-3.55,0.58,8.49,0.0,0.0,0.0,-3.01,3.48,8.65
1738244949.3889623,55670,0,0,,0.0,-0.05,0.24,0.86,0.45,0.37,0.28,0.13,-3.97,3.19,8.45,0.0,0.0,0.0,-3.05,3.56,8.61
1738244949.4058347,55671,0,0,,0.0,-0.05,0.25,0.86,0.45,0.47,0.32,0.12,-4.14,3.38,8.27,0.0,0.0,0.0,-3.07,3.6,8.58
1738244949.4230082,55672,0,0,,0.0,-0.05,0.25,0.86,0.45,0.36,0.18,0.11,-3.75,3.9,8.33,0.0,0.0,0.0,-3.1,3.67,8.54
1738244949.4388504,55673,0,0,,0.0,-0.05,0.25,0.85,0.45,0.28,0.15,0.06,-4.39,3.08,8.15,0.0,0.0,0.0,-3.12,3.71,8.51
1738244949.456506,55674,0,0,,0.0,-0.05,0.25,0.85,0.45,0.17,0.07,-0.05,-4.54,3.17,8.32,0.0,0.0,0.0,-3.13,3.72,8.51
1738244949.4735293,55675,0,0,,0.0,-0.05,0.25,0.85,0.45,0.12,-0.04,-0.06,-3.99,3.3,8.74,0.0,0.0,0.0,-3.13,3.74,8.5
1738244949.4887955,55676,0,0,,0.0,-0.05,0.25,0.85,0.45,0.1,-0.08,-0.02,-3.44,2.64,8.71,0.0,0.0,0.0,-3.13,3.76,8.49
1738244949.50634,55677,0,0,,0.0,-0.05,0.25,0.85,0.45,0.16,0.0,-0.01,-4.4,2.03,8.3,0.0,0.0,0.0,-3.13,3.77,8.49
1738244949.5236773,55678,0,0,,0.0,-0.05,0.26,0.85,0.45,0.21,0.02,0.01,-4.03,3.06,8.51,0.0,0.0,0.0,-3.13,3.8,8.47
1738244949.5395334,55679,0,0,,0.0,-0.05,0.26,0.85,0.45,0.21,0.03,0.02,-2.71,3.51,8.54,0.0,0.0,0.0,-3.13,3.84,8.45
1738244949.5567362,55680,0,0,,0.0,-0.05,0.26,0.85,0.45,0.2,0.03,0.02,-3.8,3.83,8.23,0.0,0.0,0.0,-3.14,3.86,8.44
1738244949.5736513,55681,0,0,,0.0,-0.05,0.26,0.85,0.45,0.11,0.04,-0.03,-4.99,3.46,7.88,0.0,0.0,0.0,-3.14,3.88,8.43
1738244949.5894926,55682,0,0,,0.0,-0.05,0.26,0.85,0.45,0.06,-0.03,-0.03,-4.94,3.18,8.34,0.0,0.0,0.0,-3.14,3.88,8.43
1738244949.6071973,55683,0,0,,0.0,-0.05,0.26,0.85,0.45,-0.01,-0.09,-0.02,-2.77,3.46,8.69,0.0,0.0,0.0,-3.13,3.88,8.43
1738244949.6246393,55684,0,0,,0.0,-0.05,0.26,0.85,0.45,-0.02,-0.06,-0.03,-3.5,3.14,8.7,0.0,0.0,0.0,-3.12,3.88,8.44
1738244949.6399772,55685,0,0,,0.0,-0.05,0.26,0.85,0.45,-0.03,-0.05,-0.03,-4.04,3.06,8.49,0.0,0.0,0.0,-3.12,3.87,8.44
1738244949.6572843,55686,0,0,,0.0,-0.05,0.26,0.85,0.45,-0.03,-0.05,-0.02,-4.79,3.36,8.27,0.0,0.0,0.0,-3.11,3.87,8.45
1738244949.673893,55687,0,0,,0.0,-0.05,0.26,0.85,0.45,-0.02,-0.07,0.01,-2.83,3.48,8.76,0.0,0.0,0.0,-3.1,3.87,8.45
1738244949.6899674,55688,0,0,,0.0,-0.05,0.26,0.85,0.45,-0.01,-0.04,0.0,-5.28,2.82,8.18,0.0,0.0,0.0,-3.1,3.86,8.45
1738244949.7070105,55689,0,0,,0.0,-0.05,0.26,0.85,0.45,-0.02,-0.01,-0.01,-4.42,2.84,7.97,0.0,0.0,0.0,-3.1,3.86,8.46
1738244949.724888,55690,0,0,,0.0,-0.05,0.26,0.85,0.45,-0.04,-0.04,-0.01,-3.32,3.08,8.71,0.0,0.0,0.0,-3.09,3.86,8.46
1738244949.7399762,55691,0,0,,0.0,-0.05,0.26,0.85,0.45,-0.03,-0.04,-0.01,-3.53,3.59,8.25,0.0,0.0,0.0,-3.08,3.85,8.47
1738244949.7572916,55692,0,0,,0.0,-0.05,0.26,0.85,0.45,-0.03,-0.04,-0.01,-3.37,3.03,8.62,0.0,0.0,0.0,-3.08,3.84,8.47
1738244949.774631,55693,0,0,,0.0,-0.05,0.26,0.85,0.45,-0.02,-0.05,-0.01,-3.98,2.92,8.32,0.0,0.0,0.0,-3.08,3.84,8.47
1738244949.789788,55694,0,0,,0.0,-0.05,0.26,0.85,0.46,-0.02,-0.06,-0.02,-3.21,2.96,8.77,0.0,0.0,0.0,-3.07,3.84,8.48
1738244949.8073967,55695,0,0,,0.0,-0.05,0.26,0.85,0.46,0.0,-0.09,-0.0,-3.56,3.47,8.3,0.0,0.0,0.0,-3.06,3.84,8.48
1738244949.8244698,55696,0,0,,0.0,-0.05,0.26,0.85,0.46,0.03,-0.05,-0.01,-5.15,2.81,8.2,0.0,0.0,0.0,-3.05,3.84,8.48
1738244949.8401046,55697,0,0,,0.0,-0.05,0.26,0.85,0.46,0.02,-0.05,-0.0,-4.42,3.4,8.19,0.0,0.0,0.0,-3.04,3.85,8.49
1738244949.857568,55698,0,0,,0.0,-0.05,0.25,0.85,0.46,0.03,-0.05,0.01,-3.3,3.19,8.64,0.0,0.0,0.0,-3.03,3.85,8.49
1738244949.8744197,55699,0,0,,0.0,-0.04,0.25,0.85,0.46,0.01,-0.03,0.0,-3.31,3.31,8.61,0.0,0.0,0.0,-3.02,3.85,8.49
1738244949.8898652,55700,0,0,,0.0,-0.04,0.25,0.85,0.46,-0.0,-0.02,-0.0,-4.6,2.85,8.04,0.0,0.0,0.0,-3.02,3.85,8.49
1738244949.9080348,55701,0,0,,0.0,-0.04,0.25,0.85,0.46,-0.01,-0.03,-0.01,-3.53,3.22,8.3,0.0,0.0,0.0,-3.02,3.85,8.49
1738244949.9247558,55702,0,0,,0.0,-0.04,0.25,0.85,0.46,-0.02,-0.04,-0.01,-2.54,3.6,8.57,0.0,0.0,0.0,-3.02,3.84,8.49
1738244949.9402869,55703,0,0,,0.0,-0.04,0.25,0.85,0.46,-0.02,-0.03,-0.03,-3.32,3.0,8.75,0.0,0.0,0.0,-3.02,3.84,8.5
1738244949.9579294,55704,0,0,,0.0,-0.04,0.25,0.85,0.46,-0.01,0.02,-0.05,-4.42,2.55,8.16,0.0,0.0,0.0,-3.02,3.84,8.49
1738244949.9751499,55705,0,0,,0.0,-0.04,0.25,0.85,0.46,0.03,0.03,-0.02,-4.78,2.99,8.46,0.0,0.0,0.0,-3.02,3.84,8.49
1738244949.9903646,55706,0,0,,0.0,-0.04,0.25,0.85,0.46,0.06,0.02,0.01,-3.95,3.31,8.37,0.0,0.0,0.0,-3.03,3.85,8.49
1738244950.0078263,55707,0,0,,0.0,-0.04,0.26,0.85,0.46,0.06,0.03,0.0,-3.46,3.2,8.68,0.0,0.0,0.0,-3.03,3.86,8.48
1738244950.0253673,55708,0,0,,0.0,-0.04,0.26,0.85,0.46,0.06,0.04,-0.01,-4.57,2.69,8.06,0.0,0.0,0.0,-3.03,3.86,8.48
1738244950.0411372,55709,0,0,,0.0,-0.04,0.26,0.85,0.46,0.08,0.02,-0.01,-3.49,3.32,8.63,0.0,0.0,0.0,-3.04,3.88,8.47
1738244950.0580301,55710,0,0,,0.0,-0.04,0.26,0.85,0.46,0.08,-0.01,0.01,-2.77,3.41,8.52,0.0,0.0,0.0,-3.04,3.89,8.47
1738244950.075995,55711,0,0,,0.0,-0.04,0.26,0.85,0.46,0.08,-0.0,-0.01,-5.25,2.62,8.21,0.0,0.0,0.0,-3.04,3.9,8.46
1738244950.0910523,55712,0,0,,0.0,-0.04,0.26,0.85,0.46,0.08,-0.0,-0.0,-3.32,3.2,8.43,0.0,0.0,0.0,-3.04,3.91,8.46
1738244950.1085176,55713,0,0,,0.0,-0.04,0.26,0.85,0.46,0.08,0.01,-0.01,-4.73,3.0,8.39,0.0,0.0,0.0,-3.04,3.91,8.45
1738244950.1261895,55714,0,0,,0.0,-0.04,0.26,0.85,0.46,0.08,0.01,-0.01,-4.15,3.32,8.25,0.0,0.0,0.0,-3.04,3.93,8.45
1738244950.1410887,55715,0,0,,0.0,-0.04,0.26,0.85,0.46,0.08,0.03,-0.02,-4.93,2.83,7.92,0.0,0.0,0.0,-3.04,3.94,8.44
1738244950.158362,55716,0,0,,0.0,-0.04,0.26,0.85,0.46,0.09,0.04,-0.02,-3.12,3.23,8.57,0.0,0.0,0.0,-3.05,3.96,8.43
1738244950.1754134,55717,0,0,,0.0,-0.04,0.26,0.85,0.46,0.1,0.04,-0.01,-3.76,3.22,8.52,0.0,0.0,0.0,-3.05,3.96,8.42
1738244950.1906097,55718,0,0,,0.0,-0.04,0.26,0.85,0.46,0.1,0.03,-0.01,-3.6,3.37,8.55,0.0,0.0,0.0,-3.06,3.98,8.42
1738244950.208274,55719,0,0,,0.0,-0.04,0.26,0.85,0.46,0.1,0.04,-0.02,-4.75,2.92,8.2,0.0,0.0,0.0,-3.06,3.99,8.41
1738244950.22643,55720,0,0,,0.0,-0.04,0.26,0.85,0.46,0.1,0.07,-0.04,-4.55,3.21,8.36,0.0,0.0,0.0,-3.08,4.0,8.4
1738244950.241561,55721,0,0,,0.0,-0.04,0.27,0.85,0.46,0.11,0.1,-0.05,-2.06,3.77,8.42,0.0,0.0,0.0,-3.1,4.02,8.38
1738244950.2585928,55722,0,0,,0.0,-0.05,0.27,0.85,0.46,0.1,0.17,-0.09,-3.54,3.44,7.74,0.0,0.0,0.0,-3.12,4.02,8.37
1738244950.2761264,55723,0,0,,0.0,-0.05,0.27,0.85,0.46,0.1,0.38,-0.16,-5.8,3.84,9.32,0.0,0.0,0.0,-3.18,4.03,8.35
1738244950.2914708,55724,0,0,,0.0,-0.05,0.27,0.85,0.46,0.12,0.5,-0.19,-3.27,3.25,7.7,0.0,0.0,0.0,-3.26,4.04,8.31
1738244950.3094594,55725,0,0,,0.0,-0.06,0.28,0.84,0.46,0.16,0.68,-0.27,-2.91,3.64,9.56,0.0,0.0,0.0,-3.33,4.04,8.28
1738244950.3262596,55726,0,0,,0.0,-0.06,0.28,0.84,0.46,0.21,0.94,-0.32,-3.73,2.91,8.5,0.0,0.0,0.0,-3.49,4.05,8.21
1738244950.342123,55727,0,0,,0.0,-0.07,0.29,0.84,0.46,0.26,1.29,-0.36,-3.77,3.04,8.61,0.0,0.0,0.0,-3.71,4.07,8.11
1738244950.3590798,55728,0,0,,0.0,-0.08,0.29,0.84,0.46,0.32,1.41,-0.31,-3.66,2.9,8.08,0.0,0.0,0.0,-3.97,4.1,7.97
1738244950.3768678,55729,0,0,,0.0,-0.09,0.3,0.83,0.46,0.38,1.7,-0.36,-3.33,3.75,8.67,0.0,0.0,0.0,-4.11,4.11,7.89
1738244950.3913314,55730,0,0,,0.0,-0.1,0.31,0.83,0.45,0.33,1.93,-0.48,-4.55,3.11,7.61,0.0,0.0,0.0,-4.43,4.13,7.7
1738244950.4092653,55731,0,0,,0.0,-0.12,0.32,0.82,0.45,0.31,2.07,-0.55,-6.45,2.96,7.29,0.0,0.0,0.0,-4.61,4.13,7.6
1738244950.4267976,55732,0,0,,0.0,-0.13,0.33,0.82,0.45,0.33,2.22,-0.64,-5.61,3.7,7.5,0.0,0.0,0.0,-4.97,4.12,7.37
1738244950.4414961,55733,0,0,,0.0,-0.15,0.34,0.81,0.45,0.28,2.33,-0.75,-5.38,3.71,7.0,0.0,0.0,0.0,-5.35,4.09,7.12
1738244950.4596946,55734,0,0,,0.0,-0.17,0.35,0.8,0.45,0.22,2.4,-0.84,-5.84,3.66,6.55,0.0,0.0,0.0,-5.55,4.06,6.98
1738244950.4768043,55735,0,0,,0.0,-0.18,0.35,0.8,0.45,0.05,2.57,-1.03,-6.97,3.71,7.02,0.0,0.0,0.0,-5.96,3.96,6.69
1738244950.492322,55736,0,0,,0.0,-0.21,0.36,0.79,0.45,-0.04,2.8,-1.23,-6.33,3.46,7.49,0.0,0.0,0.0,-6.39,3.82,6.37
1738244950.5095875,55737,0,0,,0.0,-0.23,0.38,0.78,0.45,0.03,2.92,-1.32,-6.96,2.89,6.59,0.0,0.0,0.0,-6.62,3.74,6.19
1738244950.5272694,55738,0,0,,0.0,-0.25,0.38,0.77,0.45,0.38,3.21,-1.58,-8.7,3.06,6.53,0.0,0.0,0.0,-7.09,3.57,5.75
1738244950.5424516,55739,0,0,,0.0,-0.28,0.39,0.75,0.45,0.3,3.44,-2.01,-10.45,6.59,8.52,0.0,0.0,0.0,-7.58,3.34,5.23
1738244950.5602329,55740,0,0,,0.0,-0.31,0.4,0.73,0.46,-0.04,3.35,-2.29,-10.51,6.04,8.89,0.0,0.0,0.0,-8.05,2.96,4.73
1738244950.5778947,55741,0,0,,0.0,-0.33,0.4,0.72,0.46,-0.16,3.36,-2.67,-8.45,4.49,9.15,0.0,0.0,0.0,-8.28,2.74,4.47
1738244950.5936375,55742,0,0,,0.0,-0.37,0.41,0.69,0.46,-0.03,3.72,-3.13,-8.93,5.37,8.27,0.0,0.0,0.0,-8.72,2.24,3.88
1738244950.610706,55743,0,0,,0.0,-0.41,0.41,0.67,0.47,-0.24,3.93,-3.42,-9.32,5.56,8.16,0.0,0.0,0.0,-9.12,1.61,3.21
1738244950.628175,55744,0,0,,0.0,-0.43,0.41,0.65,0.47,-0.41,3.28,-3.39,-12.8,3.21,12.69,0.0,0.0,0.0,-9.26,1.3,2.92
1738244950.6436346,55745,0,0,,0.0,-0.45,0.41,0.63,0.48,0.3,1.52,-2.52,-10.09,7.73,10.69,0.0,0.0,0.0,-9.42,0.81,2.57
1738244950.660602,55746,0,0,,0.0,-0.46,0.41,0.62,0.49,0.12,1.06,-2.05,-7.18,6.26,7.09,0.0,0.0,0.0,-9.49,0.49,2.4
1738244950.6782832,55747,0,0,,0.0,-0.46,0.41,0.61,0.49,-0.04,0.76,-1.15,-5.95,4.67,5.07,0.0,0.0,0.0,-9.51,0.38,2.33
1738244950.6939433,55748,0,0,,0.0,-0.47,0.41,0.61,0.49,-0.12,0.68,-0.55,-5.46,3.71,5.31,0.0,0.0,0.0,-9.55,0.25,2.2
1738244950.711273,55749,0,0,,0.0,-0.48,0.41,0.61,0.49,-0.17,0.51,-0.29,-5.25,3.22,5.3,0.0,0.0,0.0,-9.56,0.21,2.13
1738244950.7281246,55750,0,0,,0.0,-0.48,0.41,0.61,0.49,-0.17,0.07,0.12,-5.0,2.21,5.53,0.0,0.0,0.0,-9.57,0.22,2.12
1738244950.7445388,55751,0,0,,0.0,-0.47,0.4,0.61,0.49,-0.1,-0.51,0.47,-4.92,1.84,5.24,0.0,0.0,0.0,-9.55,0.28,2.19
1738244950.7611148,55752,0,0,,0.0,-0.47,0.4,0.62,0.49,-0.08,-0.8,0.63,-4.93,1.78,5.2,0.0,0.0,0.0,-9.5,0.41,2.36
1738244950.7781522,55753,0,0,,0.0,-0.46,0.4,0.62,0.49,-0.06,-1.38,0.91,-5.1,1.2,4.82,0.0,0.0,0.0,-9.47,0.49,2.49
1738244950.7941952,55754,0,0,,0.0,-0.45,0.4,0.64,0.49,-0.04,-1.92,1.01,-5.04,0.72,4.59,0.0,0.0,0.0,-9.36,0.67,2.82
1738244950.8110452,55755,0,0,,0.0,-0.43,0.39,0.65,0.49,-0.02,-2.17,0.99,-5.63,1.16,4.55,0.0,0.0,0.0,-9.21,0.85,3.23
1738244950.8281243,55756,0,0,,0.0,-0.42,0.39,0.66,0.49,0.05,-2.62,1.03,-5.88,1.59,4.06,0.0,0.0,0.0,-9.12,0.94,3.46
1738244950.8440793,55757,0,0,,0.0,-0.39,0.38,0.67,0.5,0.18,-2.89,1.27,-6.76,2.09,4.46,0.0,0.0,0.0,-8.89,1.16,3.95
1738244950.8607965,55758,0,0,,0.0,-0.37,0.37,0.69,0.5,0.26,-3.01,1.45,-6.94,1.89,4.46,0.0,0.0,0.0,-8.6,1.44,4.47
1738244950.8779964,55759,0,0,,0.0,-0.35,0.37,0.7,0.5,0.36,-3.21,1.68,-7.61,0.44,4.83,0.0,0.0,0.0,-8.44,1.6,4.72
1738244950.8931608,55760,0,0,,0.0,-0.32,0.36,0.72,0.5,0.52,-3.44,1.6,-8.91,0.07,5.33,0.0,0.0,0.0,-8.05,1.91,5.25
1738244950.9110942,55761,0,0,,0.0,-0.29,0.35,0.73,0.51,0.53,-3.57,1.48,-9.33,0.22,5.44,0.0,0.0,0.0,-7.61,2.19,5.77
1738244950.928056,55762,0,0,,0.0,-0.27,0.35,0.74,0.51,0.64,-3.78,1.47,-10.26,1.77,4.54,0.0,0.0,0.0,-7.36,2.33,6.03
1738244950.9437468,55763,0,0,,0.0,-0.23,0.34,0.76,0.51,0.56,-3.67,1.79,-9.83,1.45,3.35,0.0,0.0,0.0,-6.82,2.64,6.52
1738244950.9609835,55764,0,0,,0.0,-0.2,0.33,0.77,0.51,0.52,-3.45,1.97,-9.93,0.96,3.23,0.0,0.0,0.0,-6.28,2.96,6.91
1738244950.9782352,55765,0,0,,0.0,-0.18,0.32,0.78,0.5,0.45,-2.99,2.2,-10.83,0.47,4.32,0.0,0.0,0.0,-6.01,3.12,7.08
1738244950.99318,55766,0,0,,0.0,-0.16,0.32,0.79,0.5,0.21,-2.69,2.23,-11.18,-0.67,5.64,0.0,0.0,0.0,-5.48,3.41,7.37
1738244951.0106378,55767,0,0,,0.0,-0.13,0.31,0.81,0.49,0.18,-2.57,2.16,-11.62,-0.33,6.21,0.0,0.0,0.0,-5.23,3.54,7.5
1738244951.0283062,55768,0,0,,0.0,-0.12,0.3,0.81,0.48,0.16,-2.49,2.0,-12.0,-0.24,6.65,0.0,0.0,0.0,-4.71,3.76,7.73
1738244951.042842,55769,0,0,,0.0,-0.09,0.3,0.82,0.48,0.21,-2.42,1.76,-12.03,0.51,6.22,0.0,0.0,0.0,-4.21,3.94,7.92
1738244951.0614276,55770,0,0,,0.0,-0.07,0.29,0.83,0.47,0.2,-2.33,1.6,-12.09,0.79,5.86,0.0,0.0,0.0,-3.96,4.02,8.01
1738244951.077984,55771,0,0,,0.0,-0.06,0.29,0.83,0.47,0.29,-2.01,1.36,-11.91,1.73,4.6,0.0,0.0,0.0,-3.52,4.16,8.14
1738244951.0936542,55772,0,0,,0.0,-0.04,0.28,0.84,0.46,0.45,-1.47,1.29,-12.12,1.74,4.21,0.0,0.0,0.0,-3.16,4.32,8.21
1738244951.1110241,55773,0,0,,0.0,-0.02,0.28,0.84,0.45,0.45,-1.18,1.25,-12.13,0.75,4.05,0.0,0.0,0.0,-3.01,4.39,8.23
1738244951.1287558,55774,0,0,,0.0,-0.02,0.28,0.85,0.45,0.49,-0.57,0.89,-11.98,-1.74,4.25,0.0,0.0,0.0,-2.81,4.52,8.23
1738244951.1434848,55775,0,0,,0.0,-0.02,0.29,0.85,0.45,0.27,0.04,0.21,-11.57,-1.52,3.63,0.0,0.0,0.0,-2.76,4.6,8.2
1738244951.161404,55776,0,0,,0.0,-0.03,0.28,0.85,0.45,-0.15,0.41,-0.19,-14.7,4.39,7.16,0.0,0.0,0.0,-2.8,4.58,8.2
1738244951.1790233,55777,0,0,,0.0,-0.03,0.27,0.85,0.45,-1.91,0.39,-0.82,-11.81,-0.96,11.1,0.0,0.0,0.0,-2.96,4.25,8.32
1738244951.1932673,55778,0,0,,0.0,-0.03,0.26,0.85,0.46,-1.47,-0.96,-0.04,1.2,2.49,11.73,0.0,0.0,0.0,-2.87,4.0,8.47
1738244951.2106302,55779,0,0,,0.0,-0.03,0.25,0.85,0.46,-0.44,-1.09,0.14,5.09,7.11,10.07,0.0,0.0,0.0,-2.78,3.96,8.52
1738244951.2282681,55780,0,0,,0.0,-0.03,0.25,0.85,0.46,-0.63,0.49,-0.49,-4.37,8.01,9.49,0.0,0.0,0.0,-2.83,3.86,8.55
1738244951.2435746,55781,0,0,,0.0,-0.04,0.25,0.85,0.46,-0.77,0.38,-0.33,-6.8,0.18,9.28,0.0,0.0,0.0,-2.94,3.71,8.58
1738244951.260681,55782,0,0,,0.0,-0.05,0.24,0.85,0.46,-0.53,0.1,-0.18,-4.67,0.14,9.25,0.0,0.0,0.0,-2.95,3.66,8.6
1738244951.278116,55783,0,0,,0.0,-0.05,0.24,0.85,0.46,-0.0,0.02,0.04,-3.08,0.98,9.04,0.0,0.0,0.0,-2.95,3.64,8.61
1738244951.2930999,55784,0,0,,0.0,-0.04,0.25,0.85,0.46,0.21,0.06,0.13,-3.46,1.98,8.13,0.0,0.0,0.0,-2.96,3.69,8.58
1738244951.310949,55785,0,0,,0.0,-0.04,0.25,0.85,0.46,0.42,0.26,0.11,-4.31,4.16,8.0,0.0,0.0,0.0,-2.98,3.73,8.56
1738244951.3282828,55786,0,0,,0.0,-0.05,0.25,0.85,0.46,0.21,0.17,0.03,-3.64,4.39,8.52,0.0,0.0,0.0,-3.01,3.78,8.52
1738244951.3430665,55787,0,0,,0.0,-0.05,0.25,0.85,0.46,0.12,0.08,0.02,-3.56,4.17,8.24,0.0,0.0,0.0,-3.02,3.79,8.51
1738244951.3606906,55788,0,0,,0.0,-0.05,0.25,0.85,0.46,-0.09,0.06,-0.11,-4.79,3.35,8.07,0.0,0.0,0.0,-3.03,3.78,8.52
1738244951.3782601,55789,0,0,,0.0,-0.05,0.25,0.85,0.46,-0.19,-0.01,-0.16,-4.74,2.1,8.66,0.0,0.0,0.0,-3.05,3.74,8.53
1738244951.3932893,55790,0,0,,0.0,-0.05,0.25,0.85,0.46,-0.14,-0.06,-0.14,-2.75,2.29,9.1,0.0,0.0,0.0,-3.04,3.72,8.54
1738244951.41088,55791,0,0,,0.0,-0.05,0.25,0.85,0.46,-0.02,-0.03,-0.06,-3.42,2.73,8.51,0.0,0.0,0.0,-3.04,3.71,8.54
1738244951.4284742,55792,0,0,,0.0,-0.05,0.25,0.85,0.46,0.08,0.07,-0.04,-4.47,2.33,8.42,0.0,0.0,0.0,-3.05,3.72,8.54
1738244951.4436579,55793,0,0,,0.0,-0.05,0.25,0.85,0.46,0.13,0.04,0.01,-4.24,3.13,8.43,0.0,0.0,0.0,-3.06,3.75,8.52
1738244951.4612825,55794,0,0,,0.0,-0.05,0.25,0.85,0.46,0.19,0.01,0.07,-3.16,3.34,8.85,0.0,0.0,0.0,-3.06,3.76,8.51
1738244951.4783955,55795,0,0,,0.0,-0.05,0.25,0.85,0.46,0.18,0.03,0.07,-3.5,3.28,8.42,0.0,0.0,0.0,-3.06,3.8,8.5
1738244951.4943616,55796,0,0,,0.0,-0.05,0.25,0.85,0.46,0.16,0.05,0.05,-4.55,2.97,8.23,0.0,0.0,0.0,-3.06,3.83,8.49
1738244951.5114024,55797,0,0,,0.0,-0.05,0.26,0.85,0.46,0.11,0.0,0.04,-4.33,3.69,8.13,0.0,0.0,0.0,-3.06,3.84,8.48
1738244951.5288367,55798,0,0,,0.0,-0.04,0.26,0.85,0.46,0.05,-0.04,0.04,-3.22,3.34,8.76,0.0,0.0,0.0,-3.05,3.85,8.48
1738244951.544319,55799,0,0,,0.0,-0.04,0.26,0.85,0.46,0.03,-0.02,0.02,-5.42,2.82,8.31,0.0,0.0,0.0,-3.05,3.85,8.48
1738244951.5621285,55800,0,0,,0.0,-0.04,0.26,0.85,0.46,0.0,-0.0,0.0,-4.41,2.93,8.42,0.0,0.0,0.0,-3.05,3.85,8.48
1738244951.5790157,55801,0,0,,0.0,-0.04,0.26,0.85,0.46,-0.01,-0.03,0.01,-2.7,3.37,9.04,0.0,0.0,0.0,-3.04,3.85,8.48
1738244951.5948536,55802,0,0,,0.0,-0.04,0.26,0.85,0.46,0.0,-0.05,0.03,-3.44,3.32,8.5,0.0,0.0,0.0,-3.04,3.85,8.48
1738244951.6126127,55803,0,0,,0.0,-0.04,0.26,0.85,0.46,0.01,-0.02,0.02,-3.31,3.08,8.52,0.0,0.0,0.0,-3.03,3.85,8.48
1738244951.6297412,55804,0,0,,0.0,-0.04,0.26,0.85,0.46,-0.0,-0.02,0.01,-4.09,2.81,8.35,0.0,0.0,0.0,-3.03,3.85,8.48
1738244951.6449142,55805,0,0,,0.0,-0.04,0.26,0.85,0.46,-0.01,-0.04,0.02,-2.7,3.44,8.87,0.0,0.0,0.0,-3.03,3.85,8.48
1738244951.6633992,55806,0,0,,0.0,-0.04,0.26,0.85,0.46,0.01,-0.04,0.01,-3.4,3.35,8.37,0.0,0.0,0.0,-3.02,3.85,8.49
1738244951.680332,55807,0,0,,0.0,-0.04,0.26,0.85,0.46,-0.0,-0.01,-0.02,-5.29,2.79,8.12,0.0,0.0,0.0,-3.02,3.85,8.49
1738244951.6954713,55808,0,0,,0.0,-0.04,0.26,0.85,0.46,0.0,-0.03,-0.03,-4.0,3.35,8.19,0.0,0.0,0.0,-3.02,3.85,8.49
1738244951.7136075,55809,0,0,,0.0,-0.04,0.25,0.85,0.46,0.01,-0.05,-0.02,-2.73,3.54,8.77,0.0,0.0,0.0,-3.01,3.85,8.49
1738244951.7302155,55810,0,0,,0.0,-0.04,0.25,0.85,0.46,0.03,-0.04,-0.03,-3.24,3.27,8.51,0.0,0.0,0.0,-3.01,3.85,8.49
1738244951.7452056,55811,0,0,,0.0,-0.04,0.26,0.85,0.46,0.05,-0.01,-0.05,-4.41,2.71,8.36,0.0,0.0,0.0,-3.01,3.86,8.49
1738244951.763364,55812,0,0,,0.0,-0.04,0.26,0.85,0.46,0.06,-0.03,-0.03,-4.13,2.57,8.25,0.0,0.0,0.0,-3.01,3.87,8.49
1738244951.7799792,55813,0,0,,0.0,-0.04,0.26,0.85,0.46,0.07,-0.05,-0.0,-3.64,3.27,8.63,0.0,0.0,0.0,-3.0,3.87,8.48
1738244951.7951775,55814,0,0,,0.0,-0.04,0.26,0.85,0.46,0.06,-0.03,-0.01,-3.05,3.22,8.42,0.0,0.0,0.0,-3.0,3.88,8.48
1738244951.8134375,55815,0,0,,0.0,-0.04,0.26,0.85,0.46,0.06,0.01,-0.04,-5.57,2.79,8.12,0.0,0.0,0.0,-3.0,3.89,8.48
1738244951.8296406,55816,0,0,,0.0,-0.04,0.26,0.85,0.46,0.07,0.01,-0.02,-3.96,3.34,8.3,0.0,0.0,0.0,-3.0,3.9,8.47
1738244951.844728,55817,0,0,,0.0,-0.04,0.26,0.85,0.46,0.06,-0.01,0.0,-3.57,3.29,8.65,0.0,0.0,0.0,-3.0,3.91,8.47
1738244951.8631668,55818,0,0,,0.0,-0.04,0.26,0.85,0.46,0.05,-0.01,-0.0,-3.15,3.23,8.39,0.0,0.0,0.0,-3.0,3.91,8.47
1738244951.8796556,55819,0,0,,0.0,-0.04,0.26,0.85,0.46,0.05,0.02,-0.02,-4.26,2.89,8.47,0.0,0.0,0.0,-3.0,3.92,8.46
1738244951.895381,55820,0,0,,0.0,-0.04,0.26,0.85,0.46,0.06,0.01,-0.01,-2.82,3.62,8.89,0.0,0.0,0.0,-3.01,3.93,8.46
1738244951.912451,55821,0,0,,0.0,-0.04,0.26,0.85,0.46,0.07,-0.0,0.01,-3.56,3.41,8.58,0.0,0.0,0.0,-3.01,3.93,8.46
1738244951.9290197,55822,0,0,,0.0,-0.04,0.26,0.85,0.46,0.07,0.01,-0.01,-5.65,2.63,8.19,0.0,0.0,0.0,-3.01,3.94,8.45
1738244951.944448,55823,0,0,,0.0,-0.04,0.26,0.85,0.46,0.07,0.04,-0.03,-4.1,2.83,8.33,0.0,0.0,0.0,-3.02,3.96,8.44
1738244951.962326,55824,0,0,,0.0,-0.04,0.26,0.85,0.46,0.08,0.04,-0.01,-3.92,3.11,8.17,0.0,0.0,0.0,-3.02,3.96,8.44
1738244951.9791243,55825,0,0,,0.0,-0.04,0.26,0.85,0.46,0.1,0.04,0.0,-3.92,3.17,8.28,0.0,0.0,0.0,-3.02,3.98,8.43
1738244951.994262,55826,0,0,,0.0,-0.04,0.26,0.85,0.46,0.1,0.04,0.0,-5.36,2.76,8.16,0.0,0.0,0.0,-3.03,4.0,8.42
1738244952.011375,55827,0,0,,0.0,-0.04,0.26,0.85,0.46,0.12,0.07,-0.01,-4.01,2.87,8.31,0.0,0.0,0.0,-3.04,4.0,8.41
1738244952.0285318,55828,0,0,,0.0,-0.04,0.26,0.85,0.46,0.14,0.07,0.01,-2.82,3.6,8.91,0.0,0.0,0.0,-3.05,4.03,8.4
1738244952.0437436,55829,0,0,,0.0,-0.04,0.27,0.84,0.46,0.15,0.06,0.02,-3.31,3.51,8.53,0.0,0.0,0.0,-3.06,4.05,8.38
1738244952.0613399,55830,0,0,,0.0,-0.04,0.27,0.84,0.46,0.14,0.09,-0.0,-5.42,2.87,8.03,0.0,0.0,0.0,-3.07,4.06,8.37
1738244952.0785737,55831,0,0,,0.0,-0.04,0.27,0.84,0.46,0.14,0.11,-0.03,-3.88,3.12,8.38,0.0,0.0,0.0,-3.09,4.08,8.35
1738244952.0943918,55832,0,0,,0.0,-0.04,0.27,0.84,0.46,0.14,0.14,-0.05,-3.12,3.73,8.86,0.0,0.0,0.0,-3.12,4.1,8.33
1738244952.1118586,55833,0,0,,0.0,-0.04,0.27,0.84,0.46,0.13,0.18,-0.08,-3.67,3.52,8.11,0.0,0.0,0.0,-3.14,4.11,8.32
1738244952.1288311,55834,0,0,,0.0,-0.04,0.27,0.84,0.46,0.14,0.31,-0.17,-4.05,3.08,8.07,0.0,0.0,0.0,-3.19,4.12,8.3
1738244952.1440313,55835,0,0,,0.0,-0.05,0.28,0.84,0.46,0.16,0.43,-0.19,-4.68,3.85,10.1,0.0,0.0,0.0,-3.28,4.14,8.26
1738244952.162164,55836,0,0,,0.0,-0.05,0.28,0.84,0.46,0.18,0.52,-0.17,-1.77,3.29,8.22,0.0,0.0,0.0,-3.32,4.15,8.23
1738244952.179213,55837,0,0,,0.0,-0.05,0.28,0.84,0.46,0.23,0.86,-0.34,-3.96,3.38,8.66,0.0,0.0,0.0,-3.47,4.16,8.16
1738244952.1942492,55838,0,0,,0.0,-0.06,0.29,0.83,0.46,0.25,0.98,-0.37,-5.04,2.37,7.89,0.0,0.0,0.0,-3.67,4.18,8.07
1738244952.212088,55839,0,0,,0.0,-0.07,0.29,0.83,0.46,0.3,1.33,-0.41,-4.9,3.42,8.15,0.0,0.0,0.0,-3.8,4.19,8.01
1738244952.2292974,55840,0,0,,0.0,-0.08,0.3,0.83,0.46,0.34,1.62,-0.39,-2.91,3.59,8.42,0.0,0.0,0.0,-4.06,4.21,7.86
1738244952.2442431,55841,0,0,,0.0,-0.1,0.31,0.82,0.46,0.32,1.78,-0.47,-4.1,3.51,8.1,0.0,0.0,0.0,-4.38,4.21,7.69
1738244952.261946,55842,0,0,,0.0,-0.1,0.32,0.82,0.46,0.26,2.04,-0.61,-6.47,3.25,7.34,0.0,0.0,0.0,-4.55,4.21,7.59
1738244952.279616,55843,0,0,,0.0,-0.12,0.33,0.82,0.46,0.23,2.24,-0.71,-4.91,3.9,7.86,0.0,0.0,0.0,-4.93,4.18,7.37
1738244952.2946334,55844,0,0,,0.0,-0.14,0.34,0.81,0.46,0.21,2.31,-0.77,-4.58,3.85,7.55,0.0,0.0,0.0,-5.32,4.12,7.12
1738244952.312286,55845,0,0,,0.0,-0.15,0.35,0.8,0.46,0.09,2.47,-0.95,-5.44,3.76,7.26,0.0,0.0,0.0,-5.53,4.08,6.99
1738244952.3291812,55846,0,0,,0.0,-0.18,0.36,0.79,0.46,-0.06,2.68,-1.17,-5.3,3.55,6.8,0.0,0.0,0.0,-5.96,3.95,6.69
1738244952.3441484,55847,0,0,,0.0,-0.21,0.37,0.78,0.46,-0.12,2.84,-1.27,-6.33,3.41,6.63,0.0,0.0,0.0,-6.44,3.77,6.35
1738244952.363035,55848,0,0,,0.0,-0.22,0.37,0.78,0.46,-0.13,3.24,-1.52,-7.65,3.73,6.87,0.0,0.0,0.0,-6.69,3.66,6.15
1738244952.3794353,55849,0,0,,0.0,-0.25,0.38,0.76,0.46,0.22,3.52,-1.73,-9.1,2.66,6.72,0.0,0.0,0.0,-7.2,3.45,5.67
1738244952.39454,55850,0,0,,0.0,-0.29,0.4,0.74,0.46,0.5,3.8,-1.88,-10.62,3.77,7.35,0.0,0.0,0.0,-7.74,3.21,5.08
1738244952.412335,55851,0,0,,0.0,-0.3,0.4,0.73,0.46,-0.03,3.76,-2.31,-11.75,6.17,9.81,0.0,0.0,0.0,-7.99,3.03,4.79
1738244952.429822,55852,0,0,,0.0,-0.34,0.41,0.71,0.46,-0.16,3.6,-2.57,-10.61,6.11,9.9,0.0,0.0,0.0,-8.44,2.62,4.23
1738244952.4447181,55853,0,0,,0.0,-0.37,0.42,0.68,0.47,-0.03,3.56,-2.69,-9.46,5.96,11.21,0.0,0.0,0.0,-8.84,2.15,3.65
1738244952.462933,55854,0,0,,0.0,-0.39,0.42,0.67,0.47,-0.26,3.16,-2.84,-9.14,4.78,10.91,0.0,0.0,0.0,-9.0,1.9,3.38
1738244952.479675,55855,0,0,,0.0,-0.41,0.42,0.66,0.47,-0.02,1.43,-1.62,-6.11,8.61,8.93,0.0,0.0,0.0,-9.19,1.54,3.05
1738244952.494821,55856,0,0,,0.0,-0.43,0.42,0.65,0.48,-0.25,1.03,-1.22,-6.2,5.0,6.98,0.0,0.0,0.0,-9.28,1.31,2.87
1738244952.5118494,55857,0,0,,0.0,-0.43,0.41,0.65,0.48,-0.26,0.73,-1.04,-6.74,4.22,7.75,0.0,0.0,0.0,-9.31,1.21,2.81
1738244952.529487,55858,0,0,,0.0,-0.44,0.41,0.64,0.48,-0.25,0.13,-0.94,-5.68,3.65,7.06,0.0,0.0,0.0,-9.35,1.02,2.77
1738244952.5443761,55859,0,0,,0.0,-0.44,0.4,0.64,0.49,-0.22,-0.16,-0.87,-5.22,3.62,6.65,0.0,0.0,0.0,-9.34,0.86,2.82
1738244952.5630744,55860,0,0,,0.0,-0.44,0.4,0.64,0.49,-0.06,-0.69,-0.57,-4.2,4.22,5.45,0.0,0.0,0.0,-9.33,0.81,2.89
1738244952.5799286,55861,0,0,,0.0,-0.43,0.39,0.64,0.49,-0.0,-1.11,-0.08,-3.8,3.79,4.33,0.0,0.0,0.0,-9.27,0.77,3.07
1738244952.59495,55862,0,0,,0.0,-0.42,0.39,0.65,0.5,0.03,-1.22,0.16,-4.29,3.2,3.88,0.0,0.0,0.0,-9.19,0.83,3.3
1738244952.6125968,55863,0,0,,0.0,-0.42,0.39,0.65,0.5,0.15,-1.42,0.67,-4.55,2.18,3.62,0.0,0.0,0.0,-9.14,0.89,3.42
1738244952.6297355,55864,0,0,,0.0,-0.4,0.39,0.66,0.5,0.34,-1.64,0.99,-5.89,1.38,4.85,0.0,0.0,0.0,-9.01,1.07,3.69
1738244952.6446328,55865,0,0,,0.0,-0.38,0.38,0.67,0.5,0.39,-1.84,1.1,-6.13,1.13,5.02,0.0,0.0,0.0,-8.84,1.3,4.02
1738244952.6623013,55866,0,0,,0.0,-0.37,0.38,0.68,0.5,0.42,-2.28,1.15,-6.12,0.51,4.78,0.0,0.0,0.0,-8.73,1.41,4.21
1738244952.6795614,55867,0,0,,0.0,-0.35,0.38,0.69,0.51,0.51,-2.55,1.18,-6.55,0.67,4.98,0.0,0.0,0.0,-8.49,1.65,4.61
1738244952.6944702,55868,0,0,,0.0,-0.32,0.37,0.71,0.51,0.55,-2.66,1.2,-6.67,0.68,5.03,0.0,0.0,0.0,-8.19,1.9,5.03
1738244952.7120726,55869,0,0,,0.0,-0.31,0.37,0.71,0.51,0.64,-2.85,1.22,-7.56,-0.11,5.37,0.0,0.0,0.0,-8.03,2.02,5.24
1738244952.7295475,55870,0,0,,0.0,-0.28,0.36,0.72,0.52,0.71,-2.94,1.2,-8.4,0.39,5.69,0.0,0.0,0.0,-7.66,2.28,5.67
1738244952.7448153,55871,0,0,,0.0,-0.25,0.35,0.74,0.52,0.76,-3.14,1.13,-8.64,1.42,4.94,0.0,0.0,0.0,-7.25,2.53,6.09
1738244952.7627294,55872,0,0,,0.0,-0.24,0.35,0.74,0.52,0.6,-3.1,1.36,-8.88,2.75,4.47,0.0,0.0,0.0,-7.03,2.66,6.29
1738244952.779951,55873,0,0,,0.0,-0.21,0.34,0.76,0.52,0.28,-2.85,1.86,-9.18,1.85,4.87,0.0,0.0,0.0,-6.57,2.93,6.66
1738244952.794576,55874,0,0,,0.0,-0.18,0.33,0.77,0.51,0.22,-2.71,2.1,-9.41,1.2,5.35,0.0,0.0,0.0,-6.08,3.23,6.97
1738244952.8119009,55875,0,0,,0.0,-0.17,0.33,0.78,0.51,0.27,-2.57,2.27,-9.66,0.19,5.96,0.0,0.0,0.0,-5.84,3.38,7.11
1738244952.8299108,55876,0,0,,0.0,-0.14,0.32,0.79,0.5,0.28,-2.55,2.17,-9.9,0.34,6.79,0.0,0.0,0.0,-5.34,3.65,7.36
1738244952.8446245,55877,0,0,,0.0,-0.11,0.32,0.8,0.49,0.3,-2.57,1.88,-9.78,0.54,6.93,0.0,0.0,0.0,-5.08,3.76,7.48
1738244952.8621385,55878,0,0,,0.0,-0.1,0.31,0.81,0.49,0.4,-2.56,1.71,-9.83,0.83,6.88,0.0,0.0,0.0,-4.57,3.98,7.7
1738244952.8796906,55879,0,0,,0.0,-0.07,0.31,0.81,0.49,0.46,-2.43,1.54,-10.37,2.16,7.1,0.0,0.0,0.0,-4.08,4.18,7.87
1738244952.8947916,55880,0,0,,0.0,-0.05,0.3,0.82,0.48,0.41,-2.38,1.52,-10.21,2.45,6.73,0.0,0.0,0.0,-3.83,4.27,7.94
1738244952.912059,55881,0,0,,0.0,-0.04,0.3,0.83,0.48,0.29,-2.08,1.52,-9.29,1.79,5.18,0.0,0.0,0.0,-3.37,4.43,8.07
1738244952.9298651,55882,0,0,,0.0,-0.02,0.29,0.83,0.47,0.3,-1.78,1.51,-9.89,1.96,5.8,0.0,0.0,0.0,-2.98,4.56,8.14
1738244952.9449475,55883,0,0,,0.0,-0.0,0.29,0.84,0.46,0.26,-1.18,1.43,-10.83,1.36,6.79,0.0,0.0,0.0,-2.83,4.62,8.16
1738244952.9631486,55884,0,0,,0.0,0.0,0.29,0.84,0.46,0.21,-0.85,1.28,-10.81,0.06,6.63,0.0,0.0,0.0,-2.56,4.73,8.19
1738244952.9804366,55885,0,0,,0.0,0.01,0.28,0.84,0.45,0.12,-0.56,0.87,-11.08,0.24,6.32,0.0,0.0,0.0,-2.37,4.8,8.21
1738244952.9950833,55886,0,0,,0.0,0.01,0.28,0.85,0.45,0.04,-0.48,0.69,-10.51,0.2,5.48,0.0,0.0,0.0,-2.3,4.82,8.22
1738244953.0124702,55887,0,0,,0.0,0.01,0.28,0.85,0.45,-0.22,-0.03,0.26,-10.35,-0.09,3.13,0.0,0.0,0.0,-2.24,4.81,8.24
1738244953.0304728,55888,0,0,,0.0,0.01,0.28,0.85,0.45,-0.32,0.33,0.04,-10.39,-0.25,2.72,0.0,0.0,0.0,-2.33,4.75,8.25
1738244953.0450985,55889,0,0,,0.0,-0.0,0.28,0.85,0.45,-0.48,1.16,-0.24,-10.22,0.32,4.75,0.0,0.0,0.0,-2.43,4.7,8.24
1738244953.0620348,55890,0,0,,0.0,-0.01,0.28,0.85,0.45,-1.04,0.8,-0.1,-6.15,2.15,16.39,0.0,0.0,0.0,-2.61,4.58,8.26
1738244953.0799115,55891,0,0,,0.0,-0.01,0.27,0.85,0.45,-1.24,-0.17,0.04,4.93,1.94,12.53,0.0,0.0,0.0,-2.55,4.41,8.37
1738244953.0950806,55892,0,0,,0.0,-0.02,0.27,0.85,0.45,0.0,0.03,-0.46,-1.73,7.88,5.97,0.0,0.0,0.0,-2.58,4.39,8.37
1738244953.1112132,55893,0,0,,0.0,-0.03,0.27,0.85,0.45,-1.11,1.22,-0.78,-9.55,4.11,10.84,0.0,0.0,0.0,-2.82,4.23,8.38
1738244953.1300166,55894,0,0,,0.0,-0.03,0.26,0.85,0.45,-0.94,0.68,-0.43,-5.0,2.43,9.25,0.0,0.0,0.0,-2.91,4.09,8.41
1738244953.1447182,55895,0,0,,0.0,-0.04,0.26,0.85,0.45,-0.3,0.15,-0.16,-5.09,2.9,8.48,0.0,0.0,0.0,-2.93,4.06,8.42
1738244953.1612556,55896,0,0,,0.0,-0.04,0.26,0.85,0.45,-0.07,0.11,0.03,-3.97,2.13,8.73,0.0,0.0,0.0,-2.95,4.05,8.42
1738244953.180269,55897,0,0,,0.0,-0.04,0.26,0.85,0.45,0.04,0.11,0.05,-2.99,4.67,8.44,0.0,0.0,0.0,-2.96,4.06,8.41
1738244953.1946745,55898,0,0,,0.0,-0.04,0.26,0.85,0.45,0.03,0.12,-0.01,-3.28,4.01,8.31,0.0,0.0,0.0,-2.97,4.06,8.41
1738244953.2108328,55899,0,0,,0.0,-0.04,0.26,0.85,0.45,-0.03,0.14,-0.06,-5.02,3.11,7.96,0.0,0.0,0.0,-3.0,4.06,8.4
1738244953.2297516,55900,0,0,,0.0,-0.04,0.26,0.85,0.45,-0.05,0.1,-0.09,-4.24,3.18,8.31,0.0,0.0,0.0,-3.02,4.04,8.4
1738244953.2456734,55901,0,0,,0.0,-0.04,0.26,0.85,0.45,-0.09,-0.0,-0.12,-3.96,3.47,8.51,0.0,0.0,0.0,-3.02,4.03,8.41
1738244953.2618496,55902,0,0,,0.0,-0.04,0.26,0.85,0.45,-0.02,0.0,-0.09,-3.76,2.83,8.85,0.0,0.0,0.0,-3.03,4.01,8.41
1738244953.2803419,55903,0,0,,0.0,-0.04,0.26,0.85,0.46,0.03,0.0,-0.06,-5.01,2.82,8.11,0.0,0.0,0.0,-3.04,4.02,8.4
1738244953.2954192,55904,0,0,,0.0,-0.04,0.26,0.85,0.46,0.09,0.0,-0.01,-4.39,2.86,8.39,0.0,0.0,0.0,-3.04,4.03,8.4
1738244953.3111143,55905,0,0,,0.0,-0.04,0.26,0.85,0.46,0.09,-0.03,0.02,-2.72,3.61,8.62,0.0,0.0,0.0,-3.03,4.04,8.39
1738244953.3299792,55906,0,0,,0.0,-0.04,0.27,0.85,0.46,0.09,0.01,0.0,-4.14,2.95,8.08,0.0,0.0,0.0,-3.03,4.06,8.39
1738244953.3451672,55907,0,0,,0.0,-0.04,0.27,0.85,0.46,0.06,0.03,-0.02,-5.21,3.33,7.86,0.0,0.0,0.0,-3.04,4.06,8.38
1738244953.3619058,55908,0,0,,0.0,-0.04,0.27,0.85,0.46,0.0,-0.02,-0.01,-3.83,3.51,8.38,0.0,0.0,0.0,-3.04,4.07,8.38
1738244953.3800797,55909,0,0,,0.0,-0.04,0.27,0.85,0.46,-0.01,-0.05,0.0,-3.76,3.79,8.49,0.0,0.0,0.0,-3.03,4.07,8.39
1738244953.3955026,55910,0,0,,0.0,-0.04,0.27,0.85,0.46,-0.01,-0.03,0.01,-3.69,3.05,8.6,0.0,0.0,0.0,-3.02,4.07,8.39
1738244953.411879,55911,0,0,,0.0,-0.04,0.27,0.85,0.46,0.01,-0.02,0.02,-4.15,2.9,8.54,0.0,0.0,0.0,-3.02,4.07,8.39
1738244953.4299383,55912,0,0,,0.0,-0.04,0.27,0.85,0.46,0.01,-0.03,0.03,-3.58,3.34,8.48,0.0,0.0,0.0,-3.01,4.07,8.39
1738244953.4450994,55913,0,0,,0.0,-0.04,0.27,0.85,0.46,0.03,-0.05,0.06,-3.61,3.95,8.33,0.0,0.0,0.0,-3.01,4.08,8.39
1738244953.4626184,55914,0,0,,0.0,-0.04,0.27,0.85,0.45,0.02,-0.01,0.04,-4.34,2.9,8.31,0.0,0.0,0.0,-3.0,4.08,8.39
1738244953.4806614,55915,0,0,,0.0,-0.04,0.27,0.85,0.45,0.01,0.02,0.01,-4.69,3.32,8.27,0.0,0.0,0.0,-3.0,4.08,8.39
1738244953.4970706,55916,0,0,,0.0,-0.04,0.27,0.85,0.45,-0.02,-0.01,0.0,-3.24,3.5,8.45,0.0,0.0,0.0,-2.99,4.08,8.39
1738244953.5160425,55917,0,0,,0.0,-0.04,0.27,0.85,0.45,-0.03,-0.03,-0.01,-3.74,3.85,8.17,0.0,0.0,0.0,-2.99,4.08,8.39
1738244953.531621,55918,0,0,,0.0,-0.04,0.26,0.85,0.45,-0.05,-0.0,-0.03,-4.66,3.28,7.81,0.0,0.0,0.0,-2.99,4.07,8.4
1738244953.5468056,55919,0,0,,0.0,-0.04,0.26,0.85,0.46,-0.07,-0.04,-0.03,-3.82,3.06,8.41,0.0,0.0,0.0,-2.99,4.05,8.4
1738244953.565223,55920,0,0,,0.0,-0.04,0.26,0.85,0.46,-0.07,-0.07,-0.03,-2.45,3.44,8.7,0.0,0.0,0.0,-2.98,4.05,8.41
1738244953.581562,55921,0,0,,0.0,-0.04,0.26,0.85,0.46,-0.05,-0.04,-0.04,-3.56,2.96,8.62,0.0,0.0,0.0,-2.98,4.04,8.42
1738244953.5965898,55922,0,0,,0.0,-0.04,0.26,0.85,0.46,-0.02,-0.03,-0.03,-4.93,2.86,7.91,0.0,0.0,0.0,-2.98,4.03,8.42
1738244953.614832,55923,0,0,,0.0,-0.04,0.26,0.85,0.46,0.02,-0.03,-0.0,-4.64,3.01,8.37,0.0,0.0,0.0,-2.98,4.03,8.42
1738244953.6309626,55924,0,0,,0.0,-0.04,0.26,0.85,0.46,0.04,-0.04,0.02,-3.61,3.7,8.37,0.0,0.0,0.0,-2.97,4.04,8.42
1738244953.6468651,55925,0,0,,0.0,-0.04,0.26,0.85,0.46,0.05,-0.01,0.01,-3.62,3.2,8.62,0.0,0.0,0.0,-2.97,4.04,8.42
1738244953.6641028,55926,0,0,,0.0,-0.04,0.26,0.85,0.46,0.06,0.02,-0.01,-4.98,2.95,7.91,0.0,0.0,0.0,-2.97,4.05,8.41
1738244953.6811535,55927,0,0,,0.0,-0.04,0.26,0.85,0.46,0.05,-0.01,0.01,-3.57,3.38,8.36,0.0,0.0,0.0,-2.97,4.06,8.41
1738244953.6964796,55928,0,0,,0.0,-0.04,0.26,0.85,0.46,0.05,-0.05,0.02,-2.21,3.77,8.63,0.0,0.0,0.0,-2.96,4.07,8.41
1738244953.7126944,55929,0,0,,0.0,-0.04,0.26,0.85,0.46,0.04,-0.05,-0.0,-4.21,3.01,8.2,0.0,0.0,0.0,-2.96,4.08,8.41
1738244953.7309282,55930,0,0,,0.0,-0.04,0.26,0.85,0.46,0.04,-0.03,-0.03,-3.86,3.3,8.49,0.0,0.0,0.0,-2.95,4.08,8.41
1738244953.7462206,55931,0,0,,0.0,-0.04,0.26,0.85,0.46,0.03,-0.04,-0.02,-4.48,3.06,8.39,0.0,0.0,0.0,-2.95,4.08,8.41
1738244953.7642941,55932,0,0,,0.0,-0.03,0.26,0.85,0.46,0.02,-0.04,-0.01,-3.64,3.53,8.48,0.0,0.0,0.0,-2.95,4.08,8.41
1738244953.781222,55933,0,0,,0.0,-0.03,0.26,0.85,0.46,0.02,-0.02,-0.03,-4.33,2.86,8.19,0.0,0.0,0.0,-2.95,4.09,8.4
1738244953.7968154,55934,0,0,,0.0,-0.03,0.26,0.85,0.46,0.03,0.02,-0.04,-3.65,3.24,8.48,0.0,0.0,0.0,-2.95,4.09,8.4
1738244953.812893,55935,0,0,,0.0,-0.03,0.27,0.85,0.46,0.04,0.02,-0.03,-3.45,3.28,8.49,0.0,0.0,0.0,-2.95,4.09,8.4
1738244953.8316252,55936,0,0,,0.0,-0.03,0.27,0.85,0.46,0.06,-0.01,-0.0,-3.73,3.23,8.64,0.0,0.0,0.0,-2.96,4.1,8.39
1738244953.8458784,55937,0,0,,0.0,-0.03,0.27,0.85,0.46,0.09,0.03,-0.01,-4.26,3.01,8.15,0.0,0.0,0.0,-2.96,4.11,8.39
1738244953.8621662,55938,0,0,,0.0,-0.03,0.27,0.85,0.46,0.09,0.05,-0.03,-3.77,3.33,8.55,0.0,0.0,0.0,-2.97,4.12,8.38
1738244953.8812242,55939,0,0,,0.0,-0.03,0.27,0.85,0.46,0.09,0.05,-0.03,-3.87,3.43,8.28,0.0,0.0,0.0,-2.98,4.14,8.37
1738244953.8960087,55940,0,0,,0.0,-0.03,0.27,0.85,0.46,0.08,0.02,-0.03,-3.71,3.68,8.35,0.0,0.0,0.0,-2.99,4.14,8.36
1738244953.9117553,55941,0,0,,0.0,-0.04,0.27,0.85,0.46,0.06,0.04,-0.07,-4.76,3.15,7.96,0.0,0.0,0.0,-3.0,4.15,8.36
1738244953.93104,55942,0,0,,0.0,-0.04,0.27,0.85,0.46,0.06,0.05,-0.09,-3.69,3.42,8.59,0.0,0.0,0.0,-3.01,4.15,8.35
1738244953.9456675,55943,0,0,,0.0,-0.04,0.27,0.85,0.46,0.07,0.07,-0.1,-2.08,3.99,8.73,0.0,0.0,0.0,-3.02,4.16,8.34
1738244953.9616354,55944,0,0,,0.0,-0.04,0.27,0.84,0.46,0.06,0.16,-0.14,-3.38,3.36,8.24,0.0,0.0,0.0,-3.05,4.16,8.33
1738244953.981048,55945,0,0,,0.0,-0.04,0.27,0.84,0.46,0.07,0.23,-0.16,-3.31,3.14,7.86,0.0,0.0,0.0,-3.12,4.16,8.31
1738244953.9959528,55946,0,0,,0.0,-0.04,0.27,0.84,0.46,0.09,0.43,-0.2,-4.57,3.45,8.88,0.0,0.0,0.0,-3.16,4.16,8.29
1738244954.010781,55947,0,0,,0.0,-0.05,0.28,0.84,0.46,0.15,0.61,-0.22,-1.82,3.81,8.8,0.0,0.0,0.0,-3.27,4.17,8.24
1738244954.0308971,55948,0,0,,0.0,-0.05,0.28,0.84,0.46,0.18,0.77,-0.28,-3.98,3.24,8.76,0.0,0.0,0.0,-3.42,4.18,8.17
1738244954.0458832,55949,0,0,,0.0,-0.06,0.29,0.84,0.46,0.22,1.07,-0.34,-5.6,2.72,7.97,0.0,0.0,0.0,-3.52,4.19,8.13
1738244954.061484,55950,0,0,,0.0,-0.07,0.29,0.83,0.46,0.27,1.36,-0.34,-4.05,3.25,8.1,0.0,0.0,0.0,-3.75,4.2,8.02
1738244954.0808396,55951,0,0,,0.0,-0.08,0.3,0.83,0.46,0.3,1.49,-0.32,-2.97,3.52,8.83,0.0,0.0,0.0,-4.02,4.23,7.87
1738244954.0955844,55952,0,0,,0.0,-0.09,0.31,0.83,0.46,0.33,1.72,-0.35,-4.62,3.46,8.18,0.0,0.0,0.0,-4.16,4.24,7.79
1738244954.1111016,55953,0,0,,0.0,-0.1,0.32,0.82,0.46,0.32,1.93,-0.42,-5.61,3.02,7.84,0.0,0.0,0.0,-4.47,4.25,7.61
1738244954.130677,55954,0,0,,0.0,-0.12,0.33,0.82,0.45,0.33,1.98,-0.43,-5.13,3.02,7.32,0.0,0.0,0.0,-4.63,4.26,7.51
1738244954.1453125,55955,0,0,,0.0,-0.13,0.34,0.82,0.45,0.3,2.09,-0.54,-4.88,4.35,7.2,0.0,0.0,0.0,-4.98,4.26,7.29
1738244954.160746,55956,0,0,,0.0,-0.14,0.35,0.81,0.45,0.27,2.14,-0.63,-5.91,3.8,6.65,0.0,0.0,0.0,-5.33,4.22,7.05
1738244954.1809583,55957,0,0,,0.0,-0.16,0.36,0.8,0.45,0.14,2.25,-0.87,-6.91,3.78,7.01,0.0,0.0,0.0,-5.52,4.18,6.93
1738244954.1959631,55958,0,0,,0.0,-0.18,0.36,0.8,0.45,-0.04,2.39,-1.08,-6.71,4.02,6.61,0.0,0.0,0.0,-5.91,4.07,6.67
1738244954.2113314,55959,0,0,,0.0,-0.2,0.37,0.79,0.45,-0.22,2.64,-1.29,-6.38,3.36,7.02,0.0,0.0,0.0,-6.34,3.9,6.38
1738244954.2313461,55960,0,0,,0.0,-0.23,0.37,0.78,0.45,-0.25,2.82,-1.41,-6.96,2.96,6.93,0.0,0.0,0.0,-6.56,3.79,6.21
1738244954.2457862,55961,0,0,,0.0,-0.24,0.38,0.77,0.45,-0.04,3.28,-1.68,-9.38,2.22,7.31,0.0,0.0,0.0,-7.04,3.57,5.8
1738244954.2611773,55962,0,0,,0.0,-0.28,0.39,0.75,0.45,0.08,3.78,-2.12,-9.62,5.88,9.83,0.0,0.0,0.0,-7.57,3.3,5.28
1738244954.2810855,55963,0,0,,0.0,-0.32,0.4,0.73,0.45,-0.14,3.71,-2.28,-8.58,6.16,9.09,0.0,0.0,0.0,-7.82,3.13,5.0
1738244954.2960975,55964,0,0,,0.0,-0.34,0.4,0.72,0.46,-0.79,3.82,-2.7,-10.38,3.97,7.65,0.0,0.0,0.0,-8.32,2.66,4.45
1738244954.311134,55965,0,0,,0.0,-0.38,0.4,0.7,0.46,-0.78,3.95,-2.78,-10.01,4.8,8.85,0.0,0.0,0.0,-8.77,2.14,3.82
1738244954.330749,55966,0,0,,0.0,-0.42,0.41,0.67,0.46,-0.57,4.15,-2.99,-9.45,4.2,9.37,0.0,0.0,0.0,-8.97,1.86,3.47
1738244954.3456924,55967,0,0,,0.0,-0.44,0.41,0.66,0.46,-0.39,3.59,-2.95,-9.22,3.32,9.86,0.0,0.0,0.0,-9.3,1.3,2.81
1738244954.3613431,55968,0,0,,0.0,-0.46,0.41,0.64,0.47,-0.17,2.7,-2.57,-8.89,5.6,11.16,0.0,0.0,0.0,-9.45,0.88,2.44
1738244954.3814082,55969,0,0,,0.0,-0.47,0.4,0.63,0.47,-0.0,0.57,-1.71,-5.58,3.8,6.01,0.0,0.0,0.0,-9.48,0.72,2.38
1738244954.395758,55970,0,0,,0.0,-0.47,0.39,0.63,0.48,-0.44,0.12,-1.66,-5.56,2.35,5.54,0.0,0.0,0.0,-9.51,0.39,2.35
1738244954.4114969,55971,0,0,,0.0,-0.48,0.39,0.62,0.49,-0.25,-0.04,-1.46,-5.74,4.02,5.13,0.0,0.0,0.0,-9.51,0.14,2.37
1738244954.4314046,55972,0,0,,0.0,-0.48,0.38,0.62,0.49,-0.04,-0.37,-0.9,-5.7,4.08,5.06,0.0,0.0,0.0,-9.5,0.06,2.41
1738244954.4458773,55973,0,0,,0.0,-0.48,0.38,0.62,0.49,-0.04,-0.76,-0.34,-6.11,3.57,5.16,0.0,0.0,0.0,-9.47,-0.02,2.53
1738244954.4616432,55974,0,0,,0.0,-0.47,0.37,0.63,0.5,0.04,-1.0,-0.06,-6.49,2.7,4.72,0.0,0.0,0.0,-9.41,-0.01,2.74
1738244954.4815953,55975,0,0,,0.0,-0.46,0.37,0.63,0.5,0.21,-1.48,0.45,-6.63,2.43,4.71,0.0,0.0,0.0,-9.37,0.03,2.87
1738244954.4959586,55976,0,0,,0.0,-0.45,0.37,0.64,0.5,0.32,-1.91,0.82,-6.76,0.76,4.82,0.0,0.0,0.0,-9.26,0.18,3.2
1738244954.5112631,55977,0,0,,0.0,-0.43,0.36,0.65,0.51,0.36,-2.14,0.91,-6.87,0.09,4.89,0.0,0.0,0.0,-9.11,0.37,3.59
1738244954.5316625,55978,0,0,,0.0,-0.41,0.36,0.67,0.51,0.57,-2.55,0.92,-6.72,0.29,5.13,0.0,0.0,0.0,-9.01,0.47,3.81
1738244954.5458393,55979,0,0,,0.0,-0.39,0.35,0.67,0.52,0.74,-2.87,0.97,-6.8,0.32,5.25,0.0,0.0,0.0,-8.78,0.69,4.29
1738244954.5614536,55980,0,0,,0.0,-0.37,0.35,0.69,0.52,0.85,-2.98,1.04,-7.07,0.66,5.82,0.0,0.0,0.0,-8.5,0.95,4.78
1738244954.581239,55981,0,0,,0.0,-0.33,0.34,0.7,0.53,0.96,-3.2,1.17,-7.28,0.59,6.15,0.0,0.0,0.0,-8.34,1.09,5.03
1738244954.5959628,55982,0,0,,0.0,-0.32,0.34,0.71,0.53,1.02,-3.4,1.28,-7.88,0.52,6.64,0.0,0.0,0.0,-7.96,1.39,5.54
1738244954.611715,55983,0,0,,0.0,-0.28,0.33,0.72,0.54,1.01,-3.52,1.28,-7.77,1.3,6.18,0.0,0.0,0.0,-7.52,1.7,6.05
1738244954.6315963,55984,0,0,,0.0,-0.25,0.32,0.73,0.54,0.95,-3.66,1.34,-7.84,1.82,6.14,0.0,0.0,0.0,-7.28,1.85,6.29
1738244954.6463525,55985,0,0,,0.0,-0.23,0.32,0.74,0.54,0.92,-3.58,1.72,-7.89,2.33,6.09,0.0,0.0,0.0,-6.76,2.19,6.75
1738244954.661961,55986,0,0,,0.0,-0.2,0.31,0.76,0.54,0.89,-3.5,1.95,-8.2,1.98,6.21,0.0,0.0,0.0,-6.2,2.56,7.14
1738244954.6822205,55987,0,0,,0.0,-0.16,0.31,0.77,0.53,0.83,-3.29,2.35,-8.35,1.43,6.4,0.0,0.0,0.0,-5.91,2.76,7.31
1738244954.6962857,55988,0,0,,0.0,-0.14,0.3,0.78,0.53,0.83,-3.09,2.55,-9.34,0.92,7.55,0.0,0.0,0.0,-5.31,3.15,7.61
1738244954.7118735,55989,0,0,,0.0,-0.11,0.3,0.8,0.52,0.78,-3.03,2.6,-9.7,0.08,7.65,0.0,0.0,0.0,-4.69,3.52,7.85
1738244954.7319756,55990,0,0,,0.0,-0.08,0.29,0.81,0.51,0.69,-2.86,2.56,-10.34,0.05,7.64,0.0,0.0,0.0,-4.39,3.68,7.95
1738244954.7463996,55991,0,0,,0.0,-0.06,0.29,0.81,0.5,0.5,-2.59,2.29,-11.12,0.79,7.72,0.0,0.0,0.0,-3.8,3.96,8.12
1738244954.7619572,55992,0,0,,0.0,-0.03,0.28,0.82,0.49,0.43,-2.44,2.18,-12.11,1.64,6.85,0.0,0.0,0.0,-3.25,4.17,8.25
1738244954.7818754,55993,0,0,,0.0,-0.01,0.27,0.83,0.48,0.35,-2.16,2.11,-11.9,0.3,5.74,0.0,0.0,0.0,-2.99,4.27,8.3
1738244954.7966537,55994,0,0,,0.0,-0.0,0.27,0.84,0.48,0.42,-1.58,1.77,-12.6,-1.97,4.62,0.0,0.0,0.0,-2.55,4.43,8.36
1738244954.8127055,55995,0,0,,0.0,0.01,0.27,0.84,0.47,0.45,-1.25,1.46,-11.75,-3.61,2.37,0.0,0.0,0.0,-2.26,4.56,8.37
1738244954.8320377,55996,0,0,,0.0,0.02,0.27,0.84,0.47,0.32,-0.5,0.58,-11.3,-3.92,1.27,0.0,0.0,0.0,-2.2,4.6,8.37
1738244954.8464224,55997,0,0,,0.0,0.01,0.27,0.84,0.47,0.1,0.67,-0.26,-13.35,-1.78,1.68,0.0,0.0,0.0,-2.26,4.62,8.34
1738244954.8624837,55998,0,0,,0.0,0.0,0.28,0.84,0.47,-0.03,1.18,-0.47,-14.77,-0.16,1.91,0.0,0.0,0.0,-2.52,4.58,8.29
1738244954.8821414,55999,0,0,,0.0,-0.02,0.28,0.84,0.47,-0.58,1.84,-0.42,-17.91,5.3,11.37,0.0,0.0,0.0,-2.69,4.52,8.27
1738244954.8969243,56000,0,0,,0.0,-0.03,0.27,0.84,0.47,-2.58,0.54,-0.3,-11.21,0.34,23.5,0.0,0.0,0.0,-2.91,4.13,8.4
1738244954.9121895,56001,0,0,,0.0,-0.02,0.25,0.85,0.47,-1.95,-1.13,0.12,9.32,14.88,6.94,0.0,0.0,0.0,-2.67,3.99,8.54
1738244954.9321706,56002,0,0,,0.0,-0.03,0.25,0.85,0.47,0.04,-0.14,-0.39,-6.26,12.41,8.57,0.0,0.0,0.0,-2.68,3.98,8.54
1738244954.946969,56003,0,0,,0.0,-0.03,0.25,0.85,0.47,-0.89,0.72,-0.23,-8.89,-2.68,8.94,0.0,0.0,0.0,-2.84,3.83,8.56
1738244954.9627311,56004,0,0,,0.0,-0.04,0.25,0.85,0.47,-0.64,0.23,-0.13,-2.93,3.36,8.67,0.0,0.0,0.0,-2.87,3.76,8.58
1738244954.9821894,56005,0,0,,0.0,-0.04,0.25,0.85,0.47,0.04,0.02,0.05,-3.28,1.42,9.08,0.0,0.0,0.0,-2.87,3.76,8.58
1738244954.9967027,56006,0,0,,0.0,-0.04,0.25,0.85,0.47,0.38,0.16,0.18,-3.56,3.16,7.96,0.0,0.0,0.0,-2.88,3.82,8.55
1738244955.0123172,56007,0,0,,0.0,-0.04,0.25,0.85,0.47,0.48,0.28,0.16,-4.04,4.07,8.03,0.0,0.0,0.0,-2.92,3.9,8.5
1738244955.0318658,56008,0,0,,0.0,-0.04,0.26,0.85,0.47,0.28,0.28,0.03,-4.41,4.46,7.85,0.0,0.0,0.0,-2.94,3.92,8.48
1738244955.0463765,56009,0,0,,0.0,-0.04,0.26,0.85,0.47,0.08,0.1,-0.01,-3.17,4.21,8.3,0.0,0.0,0.0,-2.96,3.94,8.47
1738244955.0622532,56010,0,0,,0.0,-0.04,0.26,0.85,0.47,-0.0,0.05,-0.06,-4.85,2.82,8.55,0.0,0.0,0.0,-2.98,3.93,8.46
1738244955.0822277,56011,0,0,,0.0,-0.04,0.26,0.84,0.47,-0.1,0.07,-0.15,-4.74,2.25,8.5,0.0,0.0,0.0,-3.0,3.92,8.47
1738244955.096888,56012,0,0,,0.0,-0.04,0.26,0.84,0.47,-0.07,-0.03,-0.09,-3.32,2.8,9.07,0.0,0.0,0.0,-3.0,3.9,8.47
1738244955.1126554,56013,0,0,,0.0,-0.04,0.26,0.84,0.47,-0.03,-0.03,-0.05,-3.54,2.72,8.46,0.0,0.0,0.0,-3.0,3.89,8.47
1738244955.1320655,56014,0,0,,0.0,-0.04,0.26,0.84,0.47,0.03,0.06,-0.05,-4.61,2.87,8.26,0.0,0.0,0.0,-3.01,3.9,8.47
1738244955.1469622,56015,0,0,,0.0,-0.04,0.26,0.84,0.47,0.02,0.05,-0.04,-4.36,3.26,8.29,0.0,0.0,0.0,-3.02,3.9,8.47
1738244955.1627312,56016,0,0,,0.0,-0.04,0.26,0.84,0.47,0.02,0.02,-0.03,-4.17,3.19,8.53,0.0,0.0,0.0,-3.02,3.9,8.47
1738244955.1823633,56017,0,0,,0.0,-0.04,0.26,0.84,0.47,-0.02,-0.01,-0.02,-3.7,3.27,8.46,0.0,0.0,0.0,-3.03,3.9,8.47
1738244955.2005084,56018,0,0,,0.0,-0.04,0.26,0.84,0.47,0.0,0.01,-0.0,-4.0,2.6,8.75,0.0,0.0,0.0,-3.02,3.89,8.47
1738244955.2191546,56019,0,0,,0.0,-0.04,0.26,0.84,0.47,0.05,-0.0,0.03,-4.07,3.03,8.34,0.0,0.0,0.0,-3.02,3.9,8.47
1738244955.233561,56020,0,0,,0.0,-0.04,0.26,0.84,0.47,0.06,-0.01,0.04,-3.59,3.08,8.51,0.0,0.0,0.0,-3.01,3.91,8.46
1738244955.249237,56021,0,0,,0.0,-0.04,0.26,0.84,0.47,0.05,-0.01,0.04,-3.89,3.13,8.44,0.0,0.0,0.0,-3.01,3.92,8.46
1738244955.266754,56022,0,0,,0.0,-0.04,0.26,0.84,0.47,0.02,-0.03,0.01,-4.85,2.79,8.22,0.0,0.0,0.0,-3.01,3.93,8.46
1738244955.2839537,56023,0,0,,0.0,-0.04,0.26,0.84,0.47,-0.01,-0.03,-0.01,-2.48,3.68,8.79,0.0,0.0,0.0,-3.0,3.92,8.46
1738244955.2977223,56024,0,0,,0.0,-0.04,0.26,0.84,0.47,-0.04,-0.06,-0.02,-4.11,3.33,8.44,0.0,0.0,0.0,-3.0,3.92,8.47
1738244955.3136032,56025,0,0,,0.0,-0.04,0.26,0.84,0.47,-0.05,-0.07,-0.02,-5.07,2.77,7.96,0.0,0.0,0.0,-2.99,3.91,8.47
1738244955.332837,56026,0,0,,0.0,-0.04,0.26,0.84,0.47,-0.05,-0.06,-0.04,-3.99,2.68,8.66,0.0,0.0,0.0,-2.98,3.9,8.48
1738244955.347251,56027,0,0,,0.0,-0.04,0.26,0.84,0.47,-0.03,-0.09,-0.03,-2.64,3.35,8.82,0.0,0.0,0.0,-2.97,3.9,8.49
1738244955.3635302,56028,0,0,,0.0,-0.04,0.26,0.84,0.47,-0.02,-0.12,-0.01,-3.59,2.92,8.53,0.0,0.0,0.0,-2.96,3.89,8.49
1738244955.382389,56029,0,0,,0.0,-0.04,0.26,0.84,0.47,0.01,-0.08,-0.02,-4.78,2.58,8.08,0.0,0.0,0.0,-2.95,3.89,8.49
1738244955.3974562,56030,0,0,,0.0,-0.04,0.26,0.84,0.47,0.04,-0.09,-0.01,-4.66,2.61,8.36,0.0,0.0,0.0,-2.94,3.9,8.5
1738244955.412988,56031,0,0,,0.0,-0.03,0.26,0.84,0.47,0.05,-0.07,-0.01,-3.73,3.19,8.53,0.0,0.0,0.0,-2.92,3.91,8.5
1738244955.4329019,56032,0,0,,0.0,-0.03,0.26,0.84,0.47,0.08,-0.06,0.0,-3.44,2.97,8.71,0.0,0.0,0.0,-2.92,3.91,8.5
1738244955.4472902,56033,0,0,,0.0,-0.03,0.26,0.84,0.47,0.09,-0.01,-0.01,-4.86,2.69,8.06,0.0,0.0,0.0,-2.91,3.93,8.49
1738244955.46364,56034,0,0,,0.0,-0.03,0.26,0.84,0.47,0.09,-0.03,0.01,-3.5,3.39,8.29,0.0,0.0,0.0,-2.91,3.94,8.49
1738244955.4825647,56035,0,0,,0.0,-0.03,0.26,0.84,0.47,0.08,-0.05,0.01,-2.39,3.83,8.69,0.0,0.0,0.0,-2.9,3.95,8.48
1738244955.4975545,56036,0,0,,0.0,-0.03,0.26,0.84,0.47,0.08,-0.03,-0.01,-3.64,3.02,8.28,0.0,0.0,0.0,-2.9,3.96,8.48
1738244955.5133991,56037,0,0,,0.0,-0.03,0.26,0.84,0.47,0.07,-0.01,-0.02,-3.93,3.12,8.61,0.0,0.0,0.0,-2.9,3.97,8.48
1738244955.5333114,56038,0,0,,0.0,-0.03,0.26,0.84,0.47,0.07,-0.01,-0.02,-4.63,2.8,8.23,0.0,0.0,0.0,-2.9,3.98,8.47
1738244955.547223,56039,0,0,,0.0,-0.03,0.26,0.84,0.47,0.07,-0.03,0.0,-3.84,3.38,8.59,0.0,0.0,0.0,-2.9,3.99,8.47
1738244955.5636728,56040,0,0,,0.0,-0.03,0.26,0.84,0.47,0.05,0.0,-0.02,-3.51,3.07,8.26,0.0,0.0,0.0,-2.9,3.99,8.47
1738244955.583684,56041,0,0,,0.0,-0.03,0.26,0.84,0.47,0.02,0.02,-0.05,-3.97,2.98,8.62,0.0,0.0,0.0,-2.9,3.99,8.46
1738244955.597816,56042,0,0,,0.0,-0.03,0.26,0.84,0.47,0.02,0.01,-0.02,-3.61,3.21,8.3,0.0,0.0,0.0,-2.9,4.0,8.46
1738244955.613245,56043,0,0,,0.0,-0.03,0.26,0.84,0.47,0.04,-0.02,0.0,-3.5,3.24,8.55,0.0,0.0,0.0,-2.9,4.0,8.46
1738244955.6331434,56044,0,0,,0.0,-0.03,0.26,0.84,0.47,0.04,0.0,-0.0,-3.6,3.1,8.29,0.0,0.0,0.0,-2.9,4.01,8.46
1738244955.6480627,56045,0,0,,0.0,-0.03,0.26,0.84,0.47,0.04,0.02,-0.01,-4.72,2.69,8.35,0.0,0.0,0.0,-2.91,4.01,8.45
1738244955.6636527,56046,0,0,,0.0,-0.03,0.26,0.84,0.47,0.04,0.03,-0.01,-2.14,3.79,8.81,0.0,0.0,0.0,-2.91,4.02,8.45
1738244955.6833262,56047,0,0,,0.0,-0.03,0.26,0.84,0.47,0.06,-0.0,0.02,-3.87,3.25,8.62,0.0,0.0,0.0,-2.91,4.02,8.45
1738244955.6978507,56048,0,0,,0.0,-0.03,0.26,0.84,0.47,0.06,0.02,0.0,-4.97,2.67,8.07,0.0,0.0,0.0,-2.91,4.03,8.44
1738244955.7135088,56049,0,0,,0.0,-0.03,0.26,0.84,0.47,0.06,0.05,-0.01,-4.23,2.73,8.34,0.0,0.0,0.0,-2.92,4.05,8.43
1738244955.7336166,56050,0,0,,0.0,-0.03,0.26,0.84,0.47,0.09,0.05,0.01,-2.27,3.74,8.91,0.0,0.0,0.0,-2.92,4.05,8.43
1738244955.747731,56051,0,0,,0.0,-0.03,0.26,0.84,0.47,0.1,0.06,0.02,-3.83,3.23,8.45,0.0,0.0,0.0,-2.93,4.07,8.42
1738244955.7633562,56052,0,0,,0.0,-0.03,0.27,0.84,0.47,0.12,0.05,0.01,-4.14,2.99,8.57,0.0,0.0,0.0,-2.94,4.09,8.4
1738244955.7830358,56053,0,0,,0.0,-0.03,0.27,0.84,0.47,0.13,0.09,-0.02,-4.22,2.91,8.38,0.0,0.0,0.0,-2.95,4.1,8.4
1738244955.7976737,56054,0,0,,0.0,-0.03,0.27,0.84,0.47,0.15,0.12,-0.03,-2.55,3.71,8.85,0.0,0.0,0.0,-2.97,4.12,8.38
1738244955.814085,56055,0,0,,0.0,-0.03,0.27,0.84,0.47,0.16,0.15,-0.05,-2.87,3.47,8.8,0.0,0.0,0.0,-3.01,4.14,8.35
1738244955.833403,56056,0,0,,0.0,-0.03,0.27,0.84,0.47,0.16,0.34,-0.14,-6.15,3.74,9.65,0.0,0.0,0.0,-3.04,4.15,8.34
1738244955.8481345,56057,0,0,,0.0,-0.04,0.27,0.84,0.47,0.18,0.41,-0.17,-3.36,3.5,8.12,0.0,0.0,0.0,-3.12,4.17,8.3
1738244955.8642294,56058,0,0,,0.0,-0.04,0.28,0.83,0.47,0.21,0.62,-0.29,-3.66,3.08,8.34,0.0,0.0,0.0,-3.25,4.18,8.24
1738244955.8838043,56059,0,0,,0.0,-0.05,0.29,0.83,0.47,0.24,0.83,-0.35,-3.29,3.04,8.09,0.0,0.0,0.0,-3.33,4.19,8.21
1738244955.8980627,56060,0,0,,0.0,-0.05,0.29,0.83,0.47,0.27,1.17,-0.4,-4.08,2.82,8.49,0.0,0.0,0.0,-3.53,4.21,8.11
1738244955.9144235,56061,0,0,,0.0,-0.06,0.3,0.83,0.47,0.32,1.27,-0.36,-3.84,3.75,8.9,0.0,0.0,0.0,-3.78,4.23,7.99
1738244955.9335408,56062,0,0,,0.0,-0.08,0.31,0.82,0.47,0.35,1.58,-0.41,-3.5,3.27,7.9,0.0,0.0,0.0,-3.91,4.25,7.92
1738244955.9479952,56063,0,0,,0.0,-0.08,0.31,0.82,0.47,0.32,1.84,-0.5,-3.94,3.5,8.09,0.0,0.0,0.0,-4.22,4.26,7.75
1738244955.9648495,56064,0,0,,0.0,-0.1,0.32,0.82,0.47,0.28,1.96,-0.56,-4.51,3.2,7.64,0.0,0.0,0.0,-4.57,4.25,7.55
1738244955.9835684,56065,0,0,,0.0,-0.12,0.33,0.81,0.47,0.23,2.2,-0.69,-5.67,3.79,7.45,0.0,0.0,0.0,-4.76,4.23,7.44
1738244955.998279,56066,0,0,,0.0,-0.13,0.34,0.81,0.47,0.16,2.38,-0.86,-5.94,4.05,7.23,0.0,0.0,0.0,-5.16,4.18,7.2
1738244956.0147612,56067,0,0,,0.0,-0.15,0.35,0.8,0.47,0.08,2.52,-0.99,-6.77,3.64,6.23,0.0,0.0,0.0,-5.59,4.08,6.93
1738244956.0341644,56068,0,0,,0.0,-0.18,0.36,0.79,0.47,-0.09,2.7,-1.19,-7.03,3.42,6.97,0.0,0.0,0.0,-5.82,4.01,6.79
1738244956.04847,56069,0,0,,0.0,-0.19,0.36,0.78,0.47,-0.23,2.97,-1.44,-6.36,2.68,7.36,0.0,0.0,0.0,-6.29,3.82,6.47
1738244956.0656912,56070,0,0,,0.0,-0.22,0.38,0.77,0.47,-0.18,3.14,-1.54,-7.73,3.11,7.2,0.0,0.0,0.0,-6.8,3.6,6.06
1738244956.084104,56071,0,0,,0.0,-0.26,0.39,0.75,0.47,0.16,3.54,-1.86,-9.07,3.66,6.95,0.0,0.0,0.0,-7.07,3.49,5.82
1738244956.09845,56072,0,0,,0.0,-0.27,0.4,0.74,0.47,0.19,4.03,-2.34,-11.87,6.22,10.04,0.0,0.0,0.0,-7.63,3.2,5.25
1738244956.1143603,56073,0,0,,0.0,-0.31,0.4,0.72,0.47,-0.09,3.89,-2.54,-10.59,5.65,9.95,0.0,0.0,0.0,-8.15,2.77,4.68
1738244956.1341887,56074,0,0,,0.0,-0.35,0.41,0.69,0.48,-0.5,3.74,-2.83,-10.17,5.25,9.39,0.0,0.0,0.0,-8.39,2.52,4.39
1738244956.1491494,56075,0,0,,0.0,-0.37,0.41,0.68,0.48,-0.29,3.83,-2.99,-10.15,5.42,9.93,0.0,0.0,0.0,-8.82,2.0,3.78
1738244956.1646643,56076,0,0,,0.0,-0.41,0.42,0.65,0.48,-0.08,3.85,-2.99,-10.82,6.17,11.27,0.0,0.0,0.0,-9.16,1.5,3.15
1738244956.1842284,56077,0,0,,0.0,-0.42,0.42,0.64,0.49,0.23,2.34,-2.18,-10.79,8.41,12.51,0.0,0.0,0.0,-9.26,1.31,2.94
1738244956.198848,56078,0,0,,0.0,-0.43,0.42,0.63,0.49,-0.29,0.89,-0.95,-6.22,4.46,6.29,0.0,0.0,0.0,-9.34,1.1,2.74
1738244956.2148528,56079,0,0,,0.0,-0.44,0.42,0.63,0.49,-0.67,0.87,-0.73,-6.01,3.23,5.82,0.0,0.0,0.0,-9.4,0.95,2.6
1738244956.233712,56080,0,0,,0.0,-0.45,0.42,0.63,0.48,-0.23,0.77,-0.39,-5.87,4.09,6.3,0.0,0.0,0.0,-9.42,0.91,2.53
1738244956.24881,56081,0,0,,0.0,-0.45,0.42,0.62,0.48,-0.17,0.36,-0.21,-5.52,3.64,6.3,0.0,0.0,0.0,-9.45,0.86,2.44
1738244956.2647984,56082,0,0,,0.0,-0.45,0.42,0.63,0.48,-0.17,0.07,-0.1,-4.87,3.23,5.79,0.0,0.0,0.0,-9.45,0.85,2.46
1738244956.2843366,56083,0,0,,0.0,-0.44,0.41,0.63,0.49,0.03,-0.57,0.24,-4.66,3.06,5.45,0.0,0.0,0.0,-9.43,0.87,2.51
1738244956.3000844,56084,0,0,,0.0,-0.44,0.41,0.63,0.49,0.13,-1.13,0.58,-4.77,2.28,5.0,0.0,0.0,0.0,-9.37,0.97,2.69
1738244956.3151822,56085,0,0,,0.0,-0.42,0.41,0.64,0.49,0.2,-1.38,0.73,-4.96,1.7,4.99,0.0,0.0,0.0,-9.28,1.12,2.96
1738244956.3341358,56086,0,0,,0.0,-0.41,0.41,0.65,0.49,0.3,-1.8,0.98,-5.25,1.36,5.26,0.0,0.0,0.0,-9.21,1.22,3.11
1738244956.348831,56087,0,0,,0.0,-0.4,0.41,0.66,0.49,0.38,-2.28,1.15,-5.86,1.66,5.37,0.0,0.0,0.0,-9.04,1.44,3.49
1738244956.3654916,56088,0,0,,0.0,-0.37,0.4,0.67,0.5,0.35,-2.51,1.2,-5.82,1.59,5.03,0.0,0.0,0.0,-8.82,1.68,3.93
1738244956.3845055,56089,0,0,,0.0,-0.35,0.39,0.69,0.5,0.26,-2.85,1.36,-6.05,1.37,5.04,0.0,0.0,0.0,-8.68,1.8,4.17
1738244956.3993492,56090,0,0,,0.0,-0.33,0.39,0.7,0.5,0.37,-3.05,1.58,-6.95,0.85,5.49,0.0,0.0,0.0,-8.37,2.09,4.65
1738244956.4156306,56091,0,0,,0.0,-0.3,0.38,0.71,0.5,0.44,-3.13,1.63,-8.08,0.13,6.02,0.0,0.0,0.0,-8.0,2.39,5.13
1738244956.4343958,56092,0,0,,0.0,-0.27,0.37,0.73,0.51,0.59,-3.4,1.54,-9.2,0.61,5.93,0.0,0.0,0.0,-7.79,2.54,5.38
1738244956.44914,56093,0,0,,0.0,-0.25,0.37,0.74,0.51,0.59,-3.64,1.4,-9.52,1.29,5.02,0.0,0.0,0.0,-7.32,2.81,5.87
1738244956.465478,56094,0,0,,0.0,-0.22,0.36,0.75,0.51,0.57,-3.62,1.44,-10.3,2.49,4.16,0.0,0.0,0.0,-6.81,3.08,6.33
1738244956.484423,56095,0,0,,0.0,-0.19,0.35,0.76,0.51,0.44,-3.4,1.75,-10.5,2.24,4.05,0.0,0.0,0.0,-6.55,3.22,6.54
1738244956.4999669,56096,0,0,,0.0,-0.17,0.34,0.77,0.51,0.38,-3.04,2.07,-11.65,0.51,5.08,0.0,0.0,0.0,-6.01,3.51,6.9
1738244956.5156806,56097,0,0,,0.0,-0.14,0.34,0.78,0.5,0.38,-2.91,2.11,-11.8,-0.51,5.39,0.0,0.0,0.0,-5.47,3.8,7.19
1738244956.5348775,56098,0,0,,0.0,-0.11,0.33,0.8,0.5,0.35,-2.81,1.9,-11.79,-0.73,5.61,0.0,0.0,0.0,-5.2,3.92,7.32
1738244956.5494235,56099,0,0,,0.0,-0.1,0.32,0.8,0.5,0.34,-2.7,1.54,-11.6,0.68,6.27,0.0,0.0,0.0,-4.68,4.12,7.56
1738244956.5656965,56100,0,0,,0.0,-0.07,0.31,0.81,0.49,0.33,-2.64,1.48,-11.18,1.77,6.12,0.0,0.0,0.0,-4.17,4.29,7.76
1738244956.5846908,56101,0,0,,0.0,-0.05,0.31,0.82,0.49,0.16,-2.44,1.55,-10.48,1.95,5.99,0.0,0.0,0.0,-3.92,4.37,7.85
1738244956.5995448,56102,0,0,,0.0,-0.04,0.3,0.82,0.48,0.03,-2.12,1.68,-9.95,1.55,5.96,0.0,0.0,0.0,-3.44,4.5,8.0
1738244956.6158452,56103,0,0,,0.0,-0.02,0.29,0.83,0.48,-0.01,-1.91,1.69,-10.01,1.61,6.31,0.0,0.0,0.0,-3.01,4.6,8.11
1738244956.6352112,56104,0,0,,0.0,-0.0,0.29,0.84,0.47,-0.03,-1.57,1.62,-9.8,0.96,6.44,0.0,0.0,0.0,-2.81,4.64,8.16
1738244956.6494417,56105,0,0,,0.0,0.01,0.28,0.84,0.46,0.0,-1.24,1.38,-9.61,0.08,6.21,0.0,0.0,0.0,-2.47,4.71,8.23
1738244956.6664903,56106,0,0,,0.0,0.02,0.28,0.84,0.46,0.04,-1.07,1.17,-8.75,-0.65,4.99,0.0,0.0,0.0,-2.22,4.77,8.27
1738244956.684874,56107,0,0,,0.0,0.02,0.28,0.85,0.46,0.09,-0.6,0.57,-8.52,-0.31,4.26,0.0,0.0,0.0,-2.15,4.79,8.27
1738244956.6996973,56108,0,0,,0.0,0.02,0.28,0.85,0.46,-0.11,0.15,-0.09,-9.04,-0.15,2.51,0.0,0.0,0.0,-2.13,4.79,8.28
1738244956.7157166,56109,0,0,,0.0,0.01,0.28,0.84,0.46,-0.18,0.64,-0.35,-8.99,0.08,2.11,0.0,0.0,0.0,-2.32,4.73,8.26
1738244956.7353501,56110,0,0,,0.0,-0.01,0.28,0.84,0.46,-0.49,1.68,-0.61,-12.16,4.83,6.24,0.0,0.0,0.0,-2.48,4.67,8.25
1738244956.7492955,56111,0,0,,0.0,-0.02,0.27,0.85,0.46,-2.66,1.12,-0.93,-9.96,0.31,21.04,0.0,0.0,0.0,-2.79,4.25,8.37
1738244956.7659328,56112,0,0,,0.0,-0.03,0.26,0.85,0.46,-1.89,-0.06,-0.53,-3.05,-2.22,13.89,0.0,0.0,0.0,-2.77,4.07,8.47
1738244956.785139,56113,0,0,,0.0,-0.03,0.26,0.85,0.47,-0.03,-0.06,-0.4,-5.88,11.55,9.37,0.0,0.0,0.0,-2.78,4.06,8.47
1738244956.7993333,56114,0,0,,0.0,-0.03,0.26,0.85,0.47,-0.6,0.53,-0.35,-7.16,1.72,8.81,0.0,0.0,0.0,-2.9,3.96,8.48
1738244956.815879,56115,0,0,,0.0,-0.04,0.25,0.85,0.47,-0.67,0.31,-0.3,-4.14,0.97,9.45,0.0,0.0,0.0,-2.94,3.86,8.51
1738244956.835077,56116,0,0,,0.0,-0.04,0.25,0.85,0.47,-0.19,-0.03,-0.04,-3.25,2.33,8.66,0.0,0.0,0.0,-2.94,3.84,8.52
1738244956.8492677,56117,0,0,,0.0,-0.04,0.25,0.85,0.47,0.07,0.13,0.07,-4.22,1.85,8.26,0.0,0.0,0.0,-2.95,3.84,8.52
1738244956.8657339,56118,0,0,,0.0,-0.04,0.26,0.85,0.47,0.21,0.19,0.09,-4.19,2.89,8.3,0.0,0.0,0.0,-2.98,3.89,8.49
1738244956.8850403,56119,0,0,,0.0,-0.04,0.26,0.85,0.47,0.26,0.18,0.05,-3.66,3.63,8.64,0.0,0.0,0.0,-2.99,3.91,8.47
1738244956.89927,56120,0,0,,0.0,-0.04,0.26,0.84,0.47,0.19,0.15,0.02,-3.69,4.09,8.52,0.0,0.0,0.0,-3.01,3.95,8.45
1738244956.9156609,56121,0,0,,0.0,-0.04,0.26,0.84,0.47,0.13,0.12,-0.01,-4.49,3.26,8.13,0.0,0.0,0.0,-3.03,3.96,8.43
1738244956.9348993,56122,0,0,,0.0,-0.04,0.26,0.84,0.47,0.0,0.04,-0.08,-4.66,2.9,8.5,0.0,0.0,0.0,-3.04,3.96,8.43
1738244956.949532,56123,0,0,,0.0,-0.04,0.26,0.84,0.47,-0.01,-0.05,-0.03,-3.24,2.51,8.81,0.0,0.0,0.0,-3.04,3.95,8.44
1738244956.9663546,56124,0,0,,0.0,-0.04,0.26,0.84,0.47,0.04,-0.04,-0.01,-3.8,2.92,8.52,0.0,0.0,0.0,-3.03,3.96,8.43
1738244956.9856317,56125,0,0,,0.0,-0.04,0.26,0.84,0.47,0.14,0.03,0.03,-4.7,2.45,8.03,0.0,0.0,0.0,-3.04,3.98,8.43
1738244956.9992259,56126,0,0,,0.0,-0.04,0.26,0.84,0.47,0.21,0.02,0.09,-4.27,3.28,8.25,0.0,0.0,0.0,-3.03,4.01,8.41
1738244957.01693,56127,0,0,,0.0,-0.04,0.27,0.84,0.47,0.19,0.02,0.09,-2.76,3.4,8.52,0.0,0.0,0.0,-3.03,4.05,8.39
1738244957.0358403,56128,0,0,,0.0,-0.04,0.27,0.84,0.47,0.14,0.04,0.06,-3.59,3.41,8.52,0.0,0.0,0.0,-3.03,4.06,8.39
1738244957.0499468,56129,0,0,,0.0,-0.04,0.27,0.84,0.46,0.03,0.02,-0.01,-3.95,3.35,8.45,0.0,0.0,0.0,-3.03,4.07,8.38
1738244957.06651,56130,0,0,,0.0,-0.04,0.27,0.84,0.47,-0.03,-0.04,-0.03,-4.69,3.52,8.24,0.0,0.0,0.0,-3.03,4.06,8.39
1738244957.0855412,56131,0,0,,0.0,-0.04,0.27,0.84,0.47,-0.08,-0.09,-0.08,-3.9,3.53,8.46,0.0,0.0,0.0,-3.03,4.05,8.39
1738244957.1004543,56132,0,0,,0.0,-0.04,0.26,0.84,0.47,-0.05,-0.07,-0.09,-5.03,2.4,8.45,0.0,0.0,0.0,-3.02,4.04,8.4
1738244957.1167545,56133,0,0,,0.0,-0.04,0.26,0.84,0.47,-0.02,-0.04,-0.09,-4.7,2.76,8.12,0.0,0.0,0.0,-3.02,4.03,8.41
1738244957.135394,56134,0,0,,0.0,-0.04,0.26,0.84,0.47,0.01,-0.05,-0.03,-3.38,3.18,8.76,0.0,0.0,0.0,-3.02,4.03,8.41
1738244957.1499314,56135,0,0,,0.0,-0.04,0.26,0.84,0.47,0.04,-0.04,0.0,-3.73,3.64,8.31,0.0,0.0,0.0,-3.01,4.04,8.41
1738244957.166552,56136,0,0,,0.0,-0.04,0.26,0.84,0.47,0.05,-0.04,0.01,-5.0,2.86,8.26,0.0,0.0,0.0,-3.0,4.04,8.4
1738244957.1857512,56137,0,0,,0.0,-0.03,0.26,0.84,0.47,0.04,-0.04,-0.0,-4.11,2.85,8.32,0.0,0.0,0.0,-3.0,4.05,8.4
1738244957.2004118,56138,0,0,,0.0,-0.03,0.26,0.84,0.47,0.03,-0.08,0.01,-2.72,3.38,8.6,0.0,0.0,0.0,-2.99,4.05,8.4
1738244957.2178104,56139,0,0,,0.0,-0.03,0.26,0.84,0.47,0.05,-0.09,0.02,-3.76,3.59,8.3,0.0,0.0,0.0,-2.98,4.06,8.41
1738244957.2356489,56140,0,0,,0.0,-0.03,0.27,0.84,0.47,0.07,-0.06,0.01,-5.03,2.57,8.16,0.0,0.0,0.0,-2.97,4.07,8.4
1738244957.249974,56141,0,0,,0.0,-0.03,0.27,0.84,0.47,0.1,-0.09,0.04,-4.63,3.22,8.26,0.0,0.0,0.0,-2.96,4.08,8.4
1738244957.2666821,56142,0,0,,0.0,-0.03,0.27,0.84,0.47,0.1,-0.1,0.04,-3.38,3.27,8.72,0.0,0.0,0.0,-2.94,4.11,8.4
1738244957.2854276,56143,0,0,,0.0,-0.03,0.27,0.84,0.47,0.14,-0.11,0.06,-3.35,3.28,8.48,0.0,0.0,0.0,-2.92,4.12,8.4
1738244957.300098,56144,0,0,,0.0,-0.03,0.27,0.84,0.47,0.1,-0.04,0.03,-4.62,3.17,8.03,0.0,0.0,0.0,-2.91,4.14,8.39
1738244957.3165467,56145,0,0,,0.0,-0.03,0.27,0.84,0.47,0.07,-0.07,0.05,-3.63,3.18,8.25,0.0,0.0,0.0,-2.9,4.15,8.39
1738244957.3357155,56146,0,0,,0.0,-0.03,0.27,0.84,0.47,0.02,-0.08,0.04,-2.26,3.76,8.59,0.0,0.0,0.0,-2.89,4.15,8.39
1738244957.3505812,56147,0,0,,0.0,-0.03,0.27,0.84,0.47,-0.03,-0.04,0.01,-4.87,2.81,8.15,0.0,0.0,0.0,-2.88,4.15,8.4
1738244957.3668895,56148,0,0,,0.0,-0.03,0.27,0.84,0.47,-0.05,-0.01,-0.01,-4.46,3.35,7.89,0.0,0.0,0.0,-2.88,4.14,8.4
1738244957.3856044,56149,0,0,,0.0,-0.03,0.27,0.84,0.47,-0.1,-0.01,-0.02,-4.74,3.41,8.26,0.0,0.0,0.0,-2.88,4.13,8.41
1738244957.4002411,56150,0,0,,0.0,-0.03,0.26,0.84,0.47,-0.15,-0.04,-0.01,-3.94,3.51,8.32,0.0,0.0,0.0,-2.87,4.11,8.42
1738244957.4176366,56151,0,0,,0.0,-0.03,0.26,0.84,0.47,-0.16,-0.01,-0.03,-3.38,3.15,8.8,0.0,0.0,0.0,-2.87,4.08,8.43
1738244957.4364576,56152,0,0,,0.0,-0.03,0.26,0.84,0.47,-0.13,0.02,-0.04,-3.58,2.89,8.43,0.0,0.0,0.0,-2.88,4.07,8.44
1738244957.4505696,56153,0,0,,0.0,-0.03,0.26,0.84,0.47,-0.09,-0.02,-0.02,-3.28,3.23,8.71,0.0,0.0,0.0,-2.88,4.05,8.44
1738244957.4683604,56154,0,0,,0.0,-0.03,0.26,0.84,0.47,-0.07,-0.04,0.0,-2.49,3.56,8.57,0.0,0.0,0.0,-2.87,4.04,8.45
1738244957.4861207,56155,0,0,,0.0,-0.03,0.26,0.84,0.47,-0.05,-0.03,-0.01,-4.95,2.41,8.26,0.0,0.0,0.0,-2.87,4.04,8.45
1738244957.5013208,56156,0,0,,0.0,-0.03,0.26,0.84,0.47,-0.01,-0.03,-0.01,-3.65,3.06,8.45,0.0,0.0,0.0,-2.87,4.04,8.46
1738244957.5186217,56157,0,0,,0.0,-0.03,0.26,0.84,0.47,0.0,-0.01,-0.02,-3.05,3.23,8.76,0.0,0.0,0.0,-2.87,4.04,8.46
1738244957.5366297,56158,0,0,,0.0,-0.03,0.26,0.84,0.47,0.03,-0.02,0.0,-4.03,3.11,8.35,0.0,0.0,0.0,-2.86,4.04,8.46
1738244957.5513167,56159,0,0,,0.0,-0.03,0.26,0.84,0.47,0.05,0.0,-0.01,-4.56,2.76,8.07,0.0,0.0,0.0,-2.86,4.05,8.45
1738244957.5689647,56160,0,0,,0.0,-0.03,0.26,0.84,0.47,0.04,0.01,-0.03,-3.43,3.26,8.52,0.0,0.0,0.0,-2.87,4.05,8.45
1738244957.5863302,56161,0,0,,0.0,-0.03,0.26,0.84,0.47,0.05,0.01,-0.02,-3.58,3.15,8.51,0.0,0.0,0.0,-2.87,4.06,8.45
1738244957.6016462,56162,0,0,,0.0,-0.03,0.26,0.84,0.47,0.07,0.01,-0.01,-3.85,3.16,8.65,0.0,0.0,0.0,-2.87,4.07,8.44
1738244957.6188369,56163,0,0,,0.0,-0.03,0.26,0.84,0.47,0.08,0.01,-0.01,-4.79,2.58,8.28,0.0,0.0,0.0,-2.94,4.02,8.44
1738244957.6366844,56164,0,0,,0.0,-0.03,0.26,0.84,0.47,0.1,0.01,-0.0,-4.63,2.87,8.4,0.0,0.0,0.0,-2.94,4.02,8.44
1738244957.651216,56165,0,0,,0.0,-0.03,0.26,0.84,0.47,0.12,0.0,0.01,-2.28,3.8,8.64,0.0,0.0,0.0,-2.95,4.04,8.43
1738244957.6688504,56166,0,0,,0.0,-0.03,0.26,0.84,0.47,0.12,0.03,-0.01,-3.67,3.32,8.62,0.0,0.0,0.0,-2.95,4.06,8.41
1738244957.686587,56167,0,0,,0.0,-0.03,0.27,0.84,0.47,0.13,0.04,-0.03,-4.61,2.9,7.99,0.0,0.0,0.0,-2.96,4.07,8.41
1738244957.701148,56168,0,0,,0.0,-0.03,0.27,0.84,0.47,0.14,0.03,-0.04,-3.5,3.4,8.47,0.0,0.0,0.0,-2.96,4.09,8.39
1738244957.7187645,56169,0,0,,0.0,-0.03,0.27,0.84,0.47,0.15,0.03,-0.06,-2.28,3.94,8.71,0.0,0.0,0.0,-2.97,4.12,8.38
1738244957.7372105,56170,0,0,,0.0,-0.03,0.27,0.84,0.47,0.14,0.07,-0.1,-3.22,3.33,8.01,0.0,0.0,0.0,-2.98,4.12,8.37
1738244957.7517624,56171,0,0,,0.0,-0.03,0.27,0.84,0.47,0.13,0.24,-0.18,-4.47,4.13,9.85,0.0,0.0,0.0,-3.02,4.14,8.35
1738244957.769105,56172,0,0,,0.0,-0.03,0.27,0.84,0.47,0.12,0.25,-0.15,-4.32,3.7,8.57,0.0,0.0,0.0,-3.08,4.15,8.33
1738244957.7870057,56173,0,0,,0.0,-0.04,0.28,0.83,0.48,0.14,0.45,-0.26,-4.2,3.62,9.09,0.0,0.0,0.0,-3.13,4.15,8.31
1738244957.8016007,56174,0,0,,0.0,-0.04,0.28,0.83,0.48,0.18,0.72,-0.37,-2.89,2.62,8.35,0.0,0.0,0.0,-3.26,4.16,8.25
1738244957.8198345,56175,0,0,,0.0,-0.05,0.28,0.83,0.48,0.2,0.92,-0.4,-5.17,2.96,8.57,0.0,0.0,0.0,-3.46,4.16,8.17
1738244957.8377082,56176,0,0,,0.0,-0.06,0.29,0.83,0.48,0.29,1.27,-0.35,-3.71,2.89,8.5,0.0,0.0,0.0,-3.57,4.17,8.11
1738244957.8527367,56177,0,0,,0.0,-0.07,0.3,0.83,0.47,0.39,1.65,-0.34,-4.09,3.2,8.32,0.0,0.0,0.0,-3.84,4.21,7.97
1738244957.8710618,56178,0,0,,0.0,-0.08,0.31,0.82,0.47,0.42,1.82,-0.38,-6.1,3.11,7.62,0.0,0.0,0.0,-4.16,4.24,7.79
1738244957.8884447,56179,0,0,,0.0,-0.1,0.32,0.82,0.47,0.44,2.14,-0.49,-5.01,3.4,8.14,0.0,0.0,0.0,-4.53,4.26,7.57
1738244957.903922,56180,0,0,,0.0,-0.11,0.33,0.81,0.47,0.35,2.38,-0.63,-4.54,4.33,7.9,0.0,0.0,0.0,-4.73,4.26,7.45
1738244957.9217079,56181,0,0,,0.0,-0.13,0.34,0.81,0.47,0.29,2.45,-0.71,-5.59,4.18,7.31,0.0,0.0,0.0,-5.15,4.22,7.19
1738244957.94034,56182,0,0,,0.0,-0.15,0.35,0.8,0.47,0.13,2.62,-0.97,-7.29,3.97,6.43,0.0,0.0,0.0,-5.6,4.12,6.9
1738244957.9549098,56183,0,0,,0.0,-0.17,0.36,0.79,0.47,-0.1,2.8,-1.27,-6.45,3.74,6.33,0.0,0.0,0.0,-5.83,4.04,6.75
1738244957.972987,56184,0,0,,0.0,-0.19,0.37,0.78,0.47,-0.2,2.87,-1.43,-6.78,3.39,7.03,0.0,0.0,0.0,-6.32,3.84,6.42
1738244957.990966,56185,0,0,,0.0,-0.22,0.38,0.77,0.47,0.01,3.12,-1.71,-8.56,4.97,7.85,0.0,0.0,0.0,-6.84,3.62,6.01
1738244958.0056038,56186,0,0,,0.0,-0.24,0.38,0.76,0.47,0.07,3.43,-2.19,-9.95,5.32,8.61,0.0,0.0,0.0,-7.11,3.47,5.77
1738244958.0237122,56187,0,0,,0.0,-0.28,0.39,0.74,0.48,-0.5,3.41,-2.71,-9.29,4.65,8.69,0.0,0.0,0.0,-7.65,3.06,5.31
1738244958.042373,56188,0,0,,0.0,-0.32,0.39,0.72,0.48,-0.69,3.49,-2.97,-8.95,5.78,9.34,0.0,0.0,0.0,-8.16,2.52,4.81
1738244958.0578606,56189,0,0,,0.0,-0.36,0.39,0.69,0.49,-1.02,3.59,-3.29,-8.08,4.79,8.49,0.0,0.0,0.0,-8.4,2.21,4.54
1738244958.0764234,56190,0,0,,0.0,-0.38,0.39,0.68,0.49,-0.96,3.99,-3.59,-8.06,4.53,8.31,0.0,0.0,0.0,-8.84,1.54,3.93
1738244958.0936668,56191,0,0,,0.0,-0.43,0.39,0.65,0.49,-1.07,3.93,-3.47,-10.66,5.58,12.87,0.0,0.0,0.0,-9.2,0.85,3.25
1738244958.1091666,56192,0,0,,0.0,-0.45,0.39,0.63,0.5,-0.79,3.15,-2.85,-10.3,8.52,13.38,0.0,0.0,0.0,-9.39,0.37,2.79
1738244958.127165,56193,0,0,,0.0,-0.46,0.39,0.62,0.5,-0.57,1.37,-1.28,-8.4,7.38,9.09,0.0,0.0,0.0,-9.43,0.24,2.67
1738244958.1445258,56194,0,0,,0.0,-0.47,0.39,0.62,0.49,-0.53,0.68,-0.13,-6.12,3.35,4.81,0.0,0.0,0.0,-9.47,0.14,2.53
1738244958.15986,56195,0,0,,0.0,-0.48,0.39,0.62,0.49,-0.38,0.62,0.22,-6.45,2.49,4.57,0.0,0.0,0.0,-9.5,0.18,2.41
1738244958.1781704,56196,0,0,,0.0,-0.48,0.39,0.62,0.48,-0.23,0.56,0.61,-6.7,1.84,5.19,0.0,0.0,0.0,-9.51,0.24,2.36
1738244958.195064,56197,0,0,,0.0,-0.48,0.39,0.62,0.48,-0.25,0.21,0.79,-7.16,1.04,5.8,0.0,0.0,0.0,-9.52,0.36,2.3
1738244958.2112079,56198,0,0,,0.0,-0.47,0.4,0.63,0.47,-0.17,-0.09,0.85,-7.0,0.4,5.65,0.0,0.0,0.0,-9.5,0.52,2.36
1738244958.229259,56199,0,0,,0.0,-0.46,0.4,0.64,0.47,0.1,-0.85,0.94,-6.76,0.29,5.26,0.0,0.0,0.0,-9.47,0.61,2.43
1738244958.2461114,56200,0,0,,0.0,-0.45,0.4,0.64,0.47,0.3,-1.51,0.99,-5.99,0.17,4.46,0.0,0.0,0.0,-9.39,0.8,2.68
1738244958.2605298,56201,0,0,,0.0,-0.44,0.39,0.65,0.47,0.36,-1.75,1.0,-5.88,0.34,4.67,0.0,0.0,0.0,-9.27,1.0,3.01
1738244958.2795746,56202,0,0,,0.0,-0.42,0.39,0.67,0.48,0.32,-2.13,0.98,-6.05,0.4,4.92,0.0,0.0,0.0,-9.2,1.1,3.19
1738244958.295829,56203,0,0,,0.0,-0.41,0.39,0.67,0.48,0.3,-2.56,1.0,-6.28,1.03,4.79,0.0,0.0,0.0,-9.01,1.29,3.62
1738244958.3108613,56204,0,0,,0.0,-0.38,0.38,0.69,0.48,0.3,-2.93,1.16,-6.06,0.72,4.33,0.0,0.0,0.0,-8.77,1.51,4.1
1738244958.3302832,56205,0,0,,0.0,-0.36,0.37,0.7,0.49,0.33,-3.03,1.23,-6.44,0.21,4.54,0.0,0.0,0.0,-8.63,1.62,4.35
1738244958.3463137,56206,0,0,,0.0,-0.34,0.37,0.71,0.49,0.54,-3.19,1.3,-7.24,0.05,5.01,0.0,0.0,0.0,-8.3,1.88,4.85
1738244958.3621142,56207,0,0,,0.0,-0.31,0.36,0.73,0.5,0.69,-3.38,1.26,-8.65,-0.31,5.36,0.0,0.0,0.0,-7.92,2.14,5.35
1738244958.3802009,56208,0,0,,0.0,-0.28,0.35,0.74,0.5,0.75,-3.48,1.2,-9.17,0.12,5.37,0.0,0.0,0.0,-7.71,2.28,5.6
1738244958.3967373,56209,0,0,,0.0,-0.26,0.35,0.75,0.5,0.79,-3.63,1.22,-9.27,0.76,4.56,0.0,0.0,0.0,-7.25,2.54,6.08
1738244958.411015,56210,0,0,,0.0,-0.23,0.34,0.76,0.51,0.72,-3.44,1.43,-9.55,0.71,4.53,0.0,0.0,0.0,-6.75,2.81,6.52
1738244958.4298086,56211,0,0,,0.0,-0.19,0.33,0.77,0.51,0.74,-3.28,1.58,-9.98,0.79,4.93,0.0,0.0,0.0,-6.5,2.96,6.71
1738244958.4465249,56212,0,0,,0.0,-0.18,0.33,0.78,0.51,0.77,-3.0,1.84,-10.79,0.92,5.52,0.0,0.0,0.0,-5.98,3.28,7.03
1738244958.4620895,56213,0,0,,0.0,-0.15,0.33,0.79,0.5,0.57,-2.76,2.01,-10.83,0.26,5.65,0.0,0.0,0.0,-5.46,3.58,7.3
1738244958.4806254,56214,0,0,,0.0,-0.12,0.32,0.8,0.49,0.49,-2.65,2.06,-10.86,0.32,6.22,0.0,0.0,0.0,-5.2,3.73,7.42
1738244958.496679,56215,0,0,,0.0,-0.1,0.32,0.81,0.49,0.26,-2.46,2.01,-10.85,0.75,6.75,0.0,0.0,0.0,-4.68,3.97,7.64
1738244958.5116084,56216,0,0,,0.0,-0.08,0.31,0.82,0.48,0.06,-2.34,1.88,-10.66,1.9,7.05,0.0,0.0,0.0,-4.17,4.15,7.84
1738244958.5311778,56217,0,0,,0.0,-0.06,0.3,0.83,0.47,0.03,-2.27,1.81,-10.56,2.16,6.86,0.0,0.0,0.0,-3.93,4.22,7.92
1738244958.5470967,56218,0,0,,0.0,-0.05,0.29,0.83,0.47,0.08,-2.09,1.69,-10.24,2.22,6.43,0.0,0.0,0.0,-3.45,4.35,8.07
1738244958.561751,56219,0,0,,0.0,-0.03,0.29,0.84,0.46,0.27,-1.8,1.49,-9.88,1.71,6.26,0.0,0.0,0.0,-3.03,4.48,8.17
1738244958.5815082,56220,0,0,,0.0,-0.01,0.28,0.84,0.46,0.39,-1.63,1.35,-9.84,1.55,6.36,0.0,0.0,0.0,-2.84,4.55,8.2
1738244958.5971782,56221,0,0,,0.0,0.0,0.28,0.84,0.46,0.49,-1.29,1.02,-9.9,1.62,6.27,0.0,0.0,0.0,-2.52,4.68,8.23
1738244958.612084,56222,0,0,,0.0,0.01,0.28,0.85,0.45,0.41,-0.94,0.76,-9.56,1.67,4.84,0.0,0.0,0.0,-2.28,4.79,8.24
1738244958.6320148,56223,0,0,,0.0,0.02,0.28,0.85,0.45,0.27,-0.66,0.62,-9.31,1.0,3.96,0.0,0.0,0.0,-2.2,4.83,8.24
1738244958.6470478,56224,0,0,,0.0,0.02,0.28,0.85,0.45,0.02,0.16,0.25,-8.71,0.06,0.63,0.0,0.0,0.0,-2.15,4.85,8.24
1738244958.6625273,56225,0,0,,0.0,0.01,0.28,0.85,0.44,-0.42,1.38,-0.17,-9.4,0.12,1.12,0.0,0.0,0.0,-2.33,4.8,8.22
1738244958.6812298,56226,0,0,,0.0,-0.01,0.28,0.85,0.44,-0.64,1.86,-0.25,-12.28,7.06,11.75,0.0,0.0,0.0,-2.49,4.74,8.21
1738244958.6973555,56227,0,0,,0.0,-0.02,0.27,0.85,0.44,-3.0,0.98,-0.56,-6.49,-2.39,21.05,0.0,0.0,0.0,-2.77,4.32,8.35
1738244958.7121575,56228,0,0,,0.0,-0.03,0.26,0.86,0.45,-0.14,-0.49,-0.14,2.17,6.61,5.95,0.0,0.0,0.0,-2.73,4.11,8.46
1738244958.7317104,56229,0,0,,0.0,-0.03,0.26,0.85,0.45,-0.03,0.16,-0.54,-7.15,11.0,10.77,0.0,0.0,0.0,-2.77,4.09,8.46
1738244958.7475908,56230,0,0,,0.0,-0.04,0.26,0.85,0.45,-0.51,0.42,-0.32,-5.83,5.33,7.23,0.0,0.0,0.0,-2.89,3.98,8.47
1738244958.7621315,56231,0,0,,0.0,-0.04,0.25,0.85,0.45,-0.63,0.06,-0.24,-4.59,1.68,8.64,0.0,0.0,0.0,-2.94,3.85,8.52
1738244958.7820516,56232,0,0,,0.0,-0.04,0.25,0.85,0.45,-0.43,0.09,-0.19,-5.6,1.71,8.66,0.0,0.0,0.0,-2.96,3.81,8.53
1738244958.7978122,56233,0,0,,0.0,-0.05,0.25,0.86,0.45,-0.1,0.0,0.03,-2.73,2.16,9.27,0.0,0.0,0.0,-2.96,3.78,8.54
1738244958.8126404,56234,0,0,,0.0,-0.04,0.25,0.86,0.45,0.18,0.06,0.09,-3.26,3.04,8.54,0.0,0.0,0.0,-2.96,3.8,8.53
1738244958.8321872,56235,0,0,,0.0,-0.04,0.25,0.85,0.45,0.23,0.14,0.07,-4.55,2.19,8.17,0.0,0.0,0.0,-2.97,3.82,8.52
1738244958.847384,56236,0,0,,0.0,-0.04,0.25,0.85,0.45,0.27,0.18,0.05,-4.38,3.13,8.26,0.0,0.0,0.0,-3.0,3.87,8.49
1738244958.8622801,56237,0,0,,0.0,-0.04,0.26,0.85,0.45,0.21,0.03,0.03,-3.04,3.44,8.43,0.0,0.0,0.0,-3.0,3.91,8.47
1738244958.8820198,56238,0,0,,0.0,-0.04,0.26,0.85,0.45,0.15,-0.0,-0.0,-3.69,3.72,8.29,0.0,0.0,0.0,-3.0,3.92,8.46
1738244958.8976736,56239,0,0,,0.0,-0.04,0.26,0.85,0.45,0.08,0.0,-0.09,-4.99,2.57,8.2,0.0,0.0,0.0,-3.01,3.93,8.45
1738244958.9125717,56240,0,0,,0.0,-0.04,0.26,0.85,0.45,0.06,-0.03,-0.06,-4.42,2.87,8.36,0.0,0.0,0.0,-3.01,3.94,8.45
1738244958.9319377,56241,0,0,,0.0,-0.04,0.26,0.85,0.45,0.08,-0.03,-0.05,-3.09,3.18,8.87,0.0,0.0,0.0,-3.01,3.95,8.45
1738244958.9476218,56242,0,0,,0.0,-0.04,0.26,0.85,0.45,0.13,0.0,-0.01,-3.69,3.19,8.47,0.0,0.0,0.0,-3.01,3.96,8.44
1738244958.9626918,56243,0,0,,0.0,-0.04,0.26,0.85,0.45,0.14,0.06,-0.01,-4.64,2.99,8.22,0.0,0.0,0.0,-3.02,3.99,8.43
1738244958.9823563,56244,0,0,,0.0,-0.04,0.26,0.85,0.45,0.12,0.01,0.02,-4.33,2.96,8.25,0.0,0.0,0.0,-3.02,4.0,8.42
1738244958.9978037,56245,0,0,,0.0,-0.04,0.26,0.85,0.45,0.1,-0.04,0.06,-3.54,3.3,8.65,0.0,0.0,0.0,-3.01,4.02,8.42
1738244959.0126343,56246,0,0,,0.0,-0.04,0.26,0.85,0.45,0.11,-0.01,0.07,-3.29,3.03,8.79,0.0,0.0,0.0,-3.0,4.04,8.41
1738244959.032683,56247,0,0,,0.0,-0.04,0.26,0.85,0.45,0.12,0.0,0.06,-4.59,3.03,8.18,0.0,0.0,0.0,-3.0,4.05,8.4
1738244959.0475197,56248,0,0,,0.0,-0.04,0.26,0.85,0.45,0.08,-0.03,0.06,-4.31,3.93,8.02,0.0,0.0,0.0,-2.99,4.07,8.4
1738244959.063914,56249,0,0,,0.0,-0.04,0.26,0.85,0.45,0.05,-0.04,0.04,-3.71,3.69,8.1,0.0,0.0,0.0,-2.98,4.08,8.4
1738244959.08355,56250,0,0,,0.0,-0.04,0.26,0.85,0.45,0.01,-0.02,0.0,-3.51,3.13,8.49,0.0,0.0,0.0,-2.98,4.08,8.4
1738244959.098327,56251,0,0,,0.0,-0.04,0.26,0.85,0.45,-0.03,-0.02,-0.02,-4.34,2.71,8.25,0.0,0.0,0.0,-2.98,4.07,8.4
1738244959.1138,56252,0,0,,0.0,-0.04,0.26,0.85,0.45,-0.06,-0.05,-0.02,-2.85,3.31,8.86,0.0,0.0,0.0,-2.97,4.06,8.41
1738244959.134048,56253,0,0,,0.0,-0.04,0.26,0.85,0.45,-0.06,-0.07,-0.01,-3.5,3.43,8.52,0.0,0.0,0.0,-2.96,4.05,8.41
1738244959.148533,56254,0,0,,0.0,-0.04,0.26,0.85,0.45,-0.05,-0.04,-0.02,-5.43,2.91,8.03,0.0,0.0,0.0,-2.96,4.05,8.42
1738244959.1645336,56255,0,0,,0.0,-0.04,0.26,0.85,0.45,-0.05,-0.05,-0.02,-3.94,2.79,8.32,0.0,0.0,0.0,-2.96,4.04,8.42
1738244959.1843057,56256,0,0,,0.0,-0.04,0.26,0.85,0.45,-0.04,-0.05,-0.03,-2.89,3.32,8.78,0.0,0.0,0.0,-2.95,4.03,8.43
1738244959.198669,56257,0,0,,0.0,-0.04,0.26,0.85,0.45,-0.02,-0.07,-0.02,-3.41,3.29,8.33,0.0,0.0,0.0,-2.94,4.03,8.43
1738244959.215025,56258,0,0,,0.0,-0.04,0.26,0.85,0.45,0.01,-0.02,-0.04,-4.46,2.69,8.32,0.0,0.0,0.0,-2.94,4.03,8.44
1738244959.2349389,56259,0,0,,0.0,-0.04,0.26,0.85,0.45,0.02,-0.03,-0.03,-3.91,2.63,8.28,0.0,0.0,0.0,-2.94,4.03,8.44
1738244959.2494714,56260,0,0,,0.0,-0.04,0.26,0.85,0.45,0.05,-0.06,-0.0,-2.8,3.46,8.86,0.0,0.0,0.0,-2.93,4.03,8.44
1738244959.266171,56261,0,0,,0.0,-0.04,0.26,0.85,0.45,0.07,-0.03,-0.0,-2.93,3.28,8.51,0.0,0.0,0.0,-2.92,4.04,8.43
1738244959.285405,56262,0,0,,0.0,-0.04,0.26,0.85,0.45,0.08,-0.03,-0.0,-5.6,2.79,8.17,0.0,0.0,0.0,-2.92,4.06,8.43
1738244959.3002212,56263,0,0,,0.0,-0.04,0.26,0.85,0.45,0.08,-0.02,-0.0,-4.25,3.36,8.19,0.0,0.0,0.0,-2.92,4.06,8.42
1738244959.316655,56264,0,0,,0.0,-0.04,0.26,0.85,0.45,0.07,-0.03,0.0,-3.38,3.45,8.49,0.0,0.0,0.0,-2.92,4.08,8.42
1738244959.3350525,56265,0,0,,0.0,-0.03,0.26,0.85,0.45,0.06,-0.01,-0.02,-5.59,2.82,8.21,0.0,0.0,0.0,-2.92,4.08,8.42
1738244959.350215,56266,0,0,,0.0,-0.03,0.26,0.85,0.45,0.05,0.03,-0.05,-4.6,2.73,8.36,0.0,0.0,0.0,-2.92,4.09,8.41
1738244959.3666198,56267,0,0,,0.0,-0.03,0.26,0.85,0.45,0.07,0.03,-0.02,-2.72,3.6,8.93,0.0,0.0,0.0,-2.93,4.1,8.41
1738244959.385504,56268,0,0,,0.0,-0.03,0.27,0.85,0.45,0.08,0.01,0.0,-3.56,3.39,8.29,0.0,0.0,0.0,-2.93,4.11,8.4
1738244959.4001133,56269,0,0,,0.0,-0.03,0.27,0.85,0.45,0.08,0.03,-0.01,-3.05,3.52,8.42,0.0,0.0,0.0,-2.93,4.11,8.4
1738244959.4162664,56270,0,0,,0.0,-0.03,0.27,0.85,0.45,0.08,0.04,-0.02,-4.0,2.86,8.22,0.0,0.0,0.0,-2.94,4.13,8.39
1738244959.4349444,56271,0,0,,0.0,-0.03,0.27,0.85,0.45,0.09,0.03,-0.01,-4.18,3.37,8.18,0.0,0.0,0.0,-2.95,4.14,8.38
1738244959.4499364,56272,0,0,,0.0,-0.03,0.27,0.85,0.45,0.08,-0.0,0.01,-3.82,3.48,8.22,0.0,0.0,0.0,-2.95,4.15,8.38
1738244959.4668748,56273,0,0,,0.0,-0.03,0.27,0.85,0.45,0.06,0.0,-0.01,-5.43,2.91,8.15,0.0,0.0,0.0,-2.95,4.16,8.37
1738244959.4856708,56274,0,0,,0.0,-0.03,0.27,0.85,0.45,0.05,0.03,-0.03,-4.35,3.36,8.18,0.0,0.0,0.0,-2.95,4.16,8.36
1738244959.5000682,56275,0,0,,0.0,-0.03,0.27,0.85,0.45,0.05,0.02,-0.03,-3.21,3.63,8.68,0.0,0.0,0.0,-2.96,4.17,8.36
1738244959.5172465,56276,0,0,,0.0,-0.03,0.27,0.85,0.45,0.05,-0.0,-0.02,-3.75,3.46,8.28,0.0,0.0,0.0,-2.96,4.17,8.36
1738244959.5357652,56277,0,0,,0.0,-0.03,0.27,0.85,0.45,0.04,-0.01,-0.02,-4.38,3.04,8.22,0.0,0.0,0.0,-2.96,4.18,8.35
1738244959.5504336,56278,0,0,,0.0,-0.03,0.27,0.85,0.45,0.05,0.03,-0.04,-3.61,2.97,8.38,0.0,0.0,0.0,-2.96,4.18,8.35
1738244959.5666504,56279,0,0,,0.0,-0.03,0.27,0.85,0.45,0.07,0.06,-0.04,-2.86,3.5,8.43,0.0,0.0,0.0,-2.98,4.19,8.34
1738244959.5855153,56280,0,0,,0.0,-0.03,0.27,0.85,0.45,0.08,0.07,-0.04,-3.35,3.6,8.54,0.0,0.0,0.0,-2.99,4.2,8.33
1738244959.6007538,56281,0,0,,0.0,-0.04,0.27,0.85,0.46,0.09,0.11,-0.08,-5.16,2.92,8.15,0.0,0.0,0.0,-3.01,4.2,8.33
1738244959.6165862,56282,0,0,,0.0,-0.04,0.27,0.85,0.46,0.1,0.18,-0.11,-4.37,3.36,8.14,0.0,0.0,0.0,-3.04,4.21,8.31
1738244959.6358812,56283,0,0,,0.0,-0.04,0.28,0.85,0.46,0.1,0.23,-0.13,-3.03,3.5,8.52,0.0,0.0,0.0,-3.09,4.22,8.28
1738244959.6507854,56284,0,0,,0.0,-0.04,0.28,0.84,0.46,0.12,0.38,-0.18,-4.1,3.94,9.61,0.0,0.0,0.0,-3.13,4.23,8.27
1738244959.6669316,56285,0,0,,0.0,-0.04,0.28,0.84,0.46,0.14,0.51,-0.22,-4.21,3.27,7.72,0.0,0.0,0.0,-3.23,4.24,8.23
1738244959.6859233,56286,0,0,,0.0,-0.05,0.28,0.84,0.46,0.17,0.6,-0.25,-4.98,3.54,8.68,0.0,0.0,0.0,-3.36,4.24,8.17
1738244959.700734,56287,0,0,,0.0,-0.05,0.29,0.84,0.46,0.21,0.87,-0.36,-2.44,3.22,8.22,0.0,0.0,0.0,-3.44,4.25,8.13
1738244959.7169387,56288,0,0,,0.0,-0.06,0.29,0.84,0.46,0.23,1.17,-0.42,-4.97,2.61,7.89,0.0,0.0,0.0,-3.65,4.26,8.04
1738244959.7360406,56289,0,0,,0.0,-0.07,0.3,0.83,0.46,0.24,1.31,-0.43,-4.79,2.86,7.77,0.0,0.0,0.0,-3.9,4.27,7.91
1738244959.7505424,56290,0,0,,0.0,-0.08,0.31,0.83,0.46,0.31,1.58,-0.41,-5.62,3.15,7.85,0.0,0.0,0.0,-4.03,4.27,7.84
1738244959.7676623,56291,0,0,,0.0,-0.09,0.32,0.83,0.46,0.35,1.77,-0.44,-5.27,3.65,7.55,0.0,0.0,0.0,-4.33,4.29,7.67
1738244959.7861097,56292,0,0,,0.0,-0.11,0.33,0.82,0.45,0.32,1.88,-0.5,-4.91,3.79,8.03,0.0,0.0,0.0,-4.65,4.29,7.48
1738244959.8006806,56293,0,0,,0.0,-0.12,0.33,0.82,0.45,0.26,2.06,-0.63,-5.23,3.54,7.61,0.0,0.0,0.0,-4.83,4.28,7.37
1738244959.8173833,56294,0,0,,0.0,-0.14,0.34,0.81,0.45,0.2,2.21,-0.77,-6.28,3.6,7.15,0.0,0.0,0.0,-5.19,4.24,7.14
1738244959.8362994,56295,0,0,,0.0,-0.16,0.35,0.8,0.45,0.18,2.26,-0.85,-5.11,4.25,7.42,0.0,0.0,0.0,-5.58,4.17,6.89
1738244959.8508747,56296,0,0,,0.0,-0.17,0.36,0.8,0.45,0.02,2.46,-1.03,-6.32,3.84,6.4,0.0,0.0,0.0,-5.78,4.11,6.76
1738244959.8676026,56297,0,0,,0.0,-0.19,0.36,0.79,0.45,-0.2,2.74,-1.33,-6.33,3.39,6.66,0.0,0.0,0.0,-6.22,3.95,6.46
1738244959.8861947,56298,0,0,,0.0,-0.22,0.37,0.78,0.45,-0.25,2.95,-1.49,-7.71,2.34,6.75,0.0,0.0,0.0,-6.71,3.73,6.09
1738244959.9010315,56299,0,0,,0.0,-0.24,0.38,0.77,0.45,0.22,3.36,-1.82,-8.4,3.53,6.65,0.0,0.0,0.0,-6.97,3.62,5.86
1738244959.9181495,56300,0,0,,0.0,-0.27,0.39,0.75,0.46,0.45,3.77,-2.34,-11.81,6.51,9.68,0.0,0.0,0.0,-7.52,3.36,5.31
1738244959.9365976,56301,0,0,,0.0,-0.31,0.4,0.73,0.46,0.02,3.68,-2.64,-11.28,5.21,9.38,0.0,0.0,0.0,-8.04,2.94,4.77
1738244959.9514742,56302,0,0,,0.0,-0.33,0.41,0.72,0.47,-0.14,3.63,-3.03,-9.97,6.63,10.62,0.0,0.0,0.0,-8.29,2.69,4.49
1738244959.9676151,56303,0,0,,0.0,-0.36,0.41,0.69,0.47,0.08,3.61,-3.23,-9.95,6.32,11.04,0.0,0.0,0.0,-8.73,2.18,3.89
1738244959.9866524,56304,0,0,,0.0,-0.4,0.42,0.66,0.48,0.18,3.62,-3.2,-10.8,6.0,12.25,0.0,0.0,0.0,-9.07,1.69,3.31
1738244960.0011203,56305,0,0,,0.0,-0.4,0.42,0.65,0.48,0.66,1.82,-1.83,-7.7,11.42,10.48,0.0,0.0,0.0,-9.15,1.55,3.14
1738244960.0175805,56306,0,0,,0.0,-0.41,0.42,0.64,0.49,-0.14,0.84,-0.8,-5.94,3.55,7.15,0.0,0.0,0.0,-9.24,1.38,2.97
1738244960.0363936,56307,0,0,,0.0,-0.42,0.42,0.64,0.49,-0.03,0.73,-0.64,-6.06,4.89,7.09,0.0,0.0,0.0,-9.29,1.28,2.85
1738244960.0516095,56308,0,0,,0.0,-0.42,0.42,0.64,0.49,0.0,0.47,-0.48,-5.03,4.59,6.87,0.0,0.0,0.0,-9.31,1.23,2.81
1738244960.067484,56309,0,0,,0.0,-0.42,0.42,0.63,0.49,-0.14,0.01,-0.28,-3.64,3.58,6.22,0.0,0.0,0.0,-9.32,1.17,2.79
1738244960.0868897,56310,0,0,,0.0,-0.42,0.42,0.64,0.49,-0.08,-0.24,-0.15,-3.59,3.74,6.14,0.0,0.0,0.0,-9.3,1.15,2.85
1738244960.1013017,56311,0,0,,0.0,-0.42,0.42,0.64,0.49,0.04,-0.79,0.24,-3.43,3.79,5.68,0.0,0.0,0.0,-9.28,1.18,2.92
1738244960.1179817,56312,0,0,,0.0,-0.41,0.41,0.65,0.49,0.08,-1.26,0.67,-3.76,2.02,4.83,0.0,0.0,0.0,-9.2,1.28,3.13
1738244960.1370077,56313,0,0,,0.0,-0.4,0.41,0.66,0.49,0.12,-1.45,0.84,-3.69,1.52,4.78,0.0,0.0,0.0,-9.08,1.44,3.4
1738244960.1516728,56314,0,0,,0.0,-0.39,0.41,0.66,0.5,0.2,-1.81,0.95,-4.53,1.36,5.52,0.0,0.0,0.0,-9.0,1.53,3.55
1738244960.1672752,56315,0,0,,0.0,-0.37,0.4,0.67,0.5,0.23,-2.27,1.0,-4.94,1.28,5.43,0.0,0.0,0.0,-8.82,1.72,3.92
1738244960.1862433,56316,0,0,,0.0,-0.35,0.4,0.69,0.5,0.26,-2.47,1.04,-5.14,2.17,4.97,0.0,0.0,0.0,-8.57,1.93,4.34
1738244960.2013562,56317,0,0,,0.0,-0.33,0.39,0.69,0.5,0.19,-2.74,1.3,-5.48,1.95,4.68,0.0,0.0,0.0,-8.43,2.04,4.56
1738244960.2168512,56318,0,0,,0.0,-0.31,0.39,0.71,0.5,0.23,-2.82,1.64,-6.61,1.03,5.1,0.0,0.0,0.0,-8.1,2.31,5.0
1738244960.236434,56319,0,0,,0.0,-0.28,0.38,0.72,0.5,0.24,-2.84,1.76,-7.3,0.85,5.47,0.0,0.0,0.0,-7.73,2.61,5.43
1738244960.2514198,56320,0,0,,0.0,-0.27,0.38,0.73,0.5,0.33,-2.94,1.77,-8.32,1.46,5.56,0.0,0.0,0.0,-7.53,2.76,5.64
1738244960.266917,56321,0,0,,0.0,-0.24,0.37,0.75,0.5,0.29,-2.99,1.82,-9.01,3.26,4.75,0.0,0.0,0.0,-7.09,3.05,6.04
1738244960.2867959,56322,0,0,,0.0,-0.21,0.36,0.76,0.5,0.24,-2.96,2.0,-9.11,3.22,4.59,0.0,0.0,0.0,-6.61,3.35,6.41
1738244960.301704,56323,0,0,,0.0,-0.19,0.36,0.77,0.49,0.17,-2.73,2.43,-9.55,2.22,5.58,0.0,0.0,0.0,-6.35,3.51,6.58
1738244960.3171349,56324,0,0,,0.0,-0.16,0.35,0.79,0.48,0.25,-2.64,2.6,-9.99,0.48,6.59,0.0,0.0,0.0,-5.82,3.85,6.88
1738244960.3368678,56325,0,0,,0.0,-0.13,0.34,0.8,0.47,0.33,-2.69,2.46,-10.15,-0.46,7.04,0.0,0.0,0.0,-5.27,4.15,7.14
1738244960.3515403,56326,0,0,,0.0,-0.12,0.34,0.8,0.47,0.58,-2.91,1.84,-11.36,0.82,8.24,0.0,0.0,0.0,-4.99,4.28,7.26
1738244960.3668218,56327,0,0,,0.0,-0.08,0.33,0.81,0.47,0.64,-3.19,1.36,-11.63,1.29,7.36,0.0,0.0,0.0,-4.42,4.51,7.49
1738244960.386272,56328,0,0,,0.0,-0.05,0.32,0.82,0.47,0.69,-3.2,1.26,-12.1,2.43,6.75,0.0,0.0,0.0,-3.85,4.71,7.68
1738244960.4011376,56329,0,0,,0.0,-0.04,0.32,0.82,0.47,0.63,-2.97,1.2,-12.68,3.46,6.3,0.0,0.0,0.0,-3.57,4.8,7.76
1738244960.416487,56330,0,0,,0.0,-0.01,0.31,0.83,0.47,0.37,-2.62,1.34,-12.64,3.46,5.1,0.0,0.0,0.0,-3.04,4.95,7.89
1738244960.436297,56331,0,0,,0.0,0.01,0.3,0.83,0.46,0.18,-2.38,1.46,-12.51,2.3,4.74,0.0,0.0,0.0,-2.55,5.05,8.0
1738244960.451281,56332,0,0,,0.0,0.02,0.3,0.84,0.46,-0.09,-1.75,1.53,-12.36,0.56,4.61,0.0,0.0,0.0,-2.34,5.08,8.05
1738244960.4668536,56333,0,0,,0.0,0.03,0.29,0.84,0.45,-0.42,-1.08,1.19,-11.32,-0.2,3.28,0.0,0.0,0.0,-2.01,5.08,8.13
1738244960.4866757,56334,0,0,,0.0,0.04,0.28,0.85,0.45,-0.63,-0.69,0.96,-10.94,-0.36,2.79,0.0,0.0,0.0,-1.86,5.0,8.22
1738244960.5009894,56335,0,0,,0.0,0.03,0.28,0.85,0.45,-0.89,0.28,0.6,-11.46,-0.66,1.93,0.0,0.0,0.0,-1.85,4.94,8.26
1738244960.5168223,56336,0,0,,0.0,0.02,0.27,0.85,0.44,-1.02,1.3,0.3,-11.84,-1.21,1.65,0.0,0.0,0.0,-1.98,4.79,8.31
1738244960.5367205,56337,0,0,,0.0,0.0,0.27,0.86,0.43,-1.13,1.76,0.18,-12.38,1.21,9.14,0.0,0.0,0.0,-2.11,4.71,8.33
1738244960.551207,56338,0,0,,0.0,-0.01,0.27,0.86,0.43,-2.29,1.44,-0.18,-2.84,-0.4,25.37,0.0,0.0,0.0,-2.38,4.43,8.41
1738244960.566723,56339,0,0,,0.0,-0.02,0.25,0.86,0.44,-3.44,0.32,-0.37,-0.17,8.65,4.06,0.0,0.0,0.0,-2.44,4.03,8.59
1738244960.587136,56340,0,0,,0.0,-0.03,0.25,0.86,0.44,0.42,0.36,-0.81,-8.8,11.39,7.18,0.0,0.0,0.0,-2.51,4.04,8.57
1738244960.6016757,56341,0,0,,0.0,-0.03,0.25,0.86,0.44,-0.93,0.66,-0.39,-4.9,0.11,8.15,0.0,0.0,0.0,-2.72,3.85,8.59
1738244960.6171162,56342,0,0,,0.0,-0.04,0.24,0.86,0.44,-0.72,0.12,-0.13,-4.61,1.32,7.93,0.0,0.0,0.0,-2.74,3.76,8.63
1738244960.6369433,56343,0,0,,0.0,-0.04,0.24,0.86,0.44,0.01,0.06,-0.03,-4.9,1.25,9.08,0.0,0.0,0.0,-2.74,3.76,8.62
1738244960.6513548,56344,0,0,,0.0,-0.04,0.24,0.86,0.44,0.38,0.09,0.17,-2.26,3.82,8.92,0.0,0.0,0.0,-2.75,3.81,8.6
1738244960.6666853,56345,0,0,,0.0,-0.04,0.25,0.86,0.44,0.53,0.12,0.22,-3.04,4.03,8.25,0.0,0.0,0.0,-2.76,3.91,8.55
1738244960.687014,56346,0,0,,0.0,-0.04,0.25,0.86,0.44,0.47,0.3,0.16,-3.97,3.59,7.83,0.0,0.0,0.0,-2.78,3.95,8.52
1738244960.700981,56347,0,0,,0.0,-0.04,0.26,0.86,0.44,0.27,0.23,0.07,-4.32,4.11,7.99,0.0,0.0,0.0,-2.82,4.01,8.49
1738244960.7165384,56348,0,0,,0.0,-0.04,0.26,0.86,0.44,0.17,0.13,0.04,-2.93,3.82,8.91,0.0,0.0,0.0,-2.83,4.03,8.47
1738244960.737133,56349,0,0,,0.0,-0.04,0.26,0.86,0.44,0.02,0.02,-0.02,-3.93,2.97,8.36,0.0,0.0,0.0,-2.83,4.03,8.47
1738244960.7511847,56350,0,0,,0.0,-0.04,0.26,0.86,0.44,0.03,0.03,-0.06,-4.93,2.61,8.29,0.0,0.0,0.0,-2.84,4.03,8.47
1738244960.7664237,56351,0,0,,0.0,-0.04,0.26,0.86,0.44,0.06,0.03,-0.07,-3.87,3.41,8.42,0.0,0.0,0.0,-2.85,4.04,8.46
1738244960.7867227,56352,0,0,,0.0,-0.04,0.26,0.86,0.44,0.08,0.02,-0.05,-2.83,3.43,8.88,0.0,0.0,0.0,-2.85,4.05,8.46
1738244960.8016388,56353,0,0,,0.0,-0.04,0.26,0.86,0.44,0.12,0.04,-0.04,-3.86,2.91,8.3,0.0,0.0,0.0,-2.86,4.06,8.45
1738244960.8168297,56354,0,0,,0.0,-0.04,0.26,0.86,0.44,0.13,0.04,-0.03,-4.41,3.47,8.42,0.0,0.0,0.0,-2.87,4.08,8.43
1738244960.836646,56355,0,0,,0.0,-0.04,0.26,0.86,0.44,0.09,0.01,-0.03,-4.26,2.87,8.37,0.0,0.0,0.0,-2.87,4.09,8.43
1738244960.8514802,56356,0,0,,0.0,-0.04,0.26,0.86,0.44,0.07,-0.05,-0.02,-3.58,3.21,8.47,0.0,0.0,0.0,-2.87,4.1,8.43
1738244960.866849,56357,0,0,,0.0,-0.04,0.26,0.86,0.44,0.07,-0.03,-0.03,-3.84,2.87,8.33,0.0,0.0,0.0,-2.87,4.11,8.42
1738244960.8876836,56358,0,0,,0.0,-0.04,0.26,0.86,0.44,0.07,-0.01,-0.04,-4.36,3.12,8.38,0.0,0.0,0.0,-2.87,4.11,8.42
1738244960.9017215,56359,0,0,,0.0,-0.04,0.26,0.86,0.44,0.05,-0.05,-0.02,-3.83,3.62,8.32,0.0,0.0,0.0,-2.86,4.12,8.42
1738244960.917841,56360,0,0,,0.0,-0.03,0.26,0.86,0.44,0.05,-0.07,0.0,-3.38,3.36,8.59,0.0,0.0,0.0,-2.85,4.13,8.42
1738244960.9370503,56361,0,0,,0.0,-0.03,0.26,0.86,0.44,0.07,-0.07,0.02,-3.83,3.06,8.35,0.0,0.0,0.0,-2.84,4.14,8.42
1738244960.9519515,56362,0,0,,0.0,-0.03,0.26,0.86,0.44,0.07,-0.05,0.02,-4.22,2.96,8.53,0.0,0.0,0.0,-2.83,4.15,8.41
1738244960.9673426,56363,0,0,,0.0,-0.03,0.26,0.86,0.44,0.08,-0.07,0.04,-2.57,3.52,8.87,0.0,0.0,0.0,-2.82,4.16,8.41
1738244960.9877143,56364,0,0,,0.0,-0.03,0.26,0.86,0.44,0.07,-0.1,0.05,-3.36,3.61,8.56,0.0,0.0,0.0,-2.81,4.17,8.41
1738244961.003687,56365,0,0,,0.0,-0.03,0.26,0.86,0.44,0.05,-0.06,0.02,-4.93,3.44,7.88,0.0,0.0,0.0,-2.8,4.18,8.41
1738244961.0201077,56366,0,0,,0.0,-0.03,0.26,0.86,0.44,-0.01,-0.05,-0.0,-4.31,3.07,8.25,0.0,0.0,0.0,-2.79,4.18,8.41
1738244961.0380564,56367,0,0,,0.0,-0.03,0.26,0.86,0.44,-0.03,-0.04,-0.02,-3.7,3.7,8.17,0.0,0.0,0.0,-2.78,4.18,8.42
1738244961.0528142,56368,0,0,,0.0,-0.03,0.26,0.86,0.44,-0.04,-0.07,-0.02,-3.46,3.51,8.41,0.0,0.0,0.0,-2.78,4.17,8.42
1738244961.0683553,56369,0,0,,0.0,-0.03,0.26,0.86,0.44,-0.06,-0.04,-0.04,-3.93,3.39,8.31,0.0,0.0,0.0,-2.77,4.16,8.43
1738244961.0879934,56370,0,0,,0.0,-0.03,0.26,0.86,0.44,-0.08,-0.06,-0.03,-4.17,3.03,8.21,0.0,0.0,0.0,-2.77,4.15,8.43
1738244961.1025906,56371,0,0,,0.0,-0.03,0.26,0.86,0.44,-0.11,-0.08,-0.03,-2.2,3.5,8.81,0.0,0.0,0.0,-2.76,4.13,8.45
1738244961.1171954,56372,0,0,,0.0,-0.03,0.26,0.86,0.44,-0.11,-0.09,-0.02,-3.4,2.79,8.35,0.0,0.0,0.0,-2.75,4.11,8.46
1738244961.137652,56373,0,0,,0.0,-0.03,0.26,0.86,0.44,-0.09,-0.04,-0.03,-5.08,2.98,8.06,0.0,0.0,0.0,-2.74,4.11,8.46
1738244961.152189,56374,0,0,,0.0,-0.03,0.26,0.86,0.44,-0.07,-0.03,-0.02,-3.68,3.37,8.37,0.0,0.0,0.0,-2.74,4.09,8.47
1738244961.16764,56375,0,0,,0.0,-0.03,0.26,0.86,0.44,-0.04,-0.02,-0.03,-3.77,3.29,8.75,0.0,0.0,0.0,-2.74,4.09,8.47
1738244961.1877933,56376,0,0,,0.0,-0.03,0.26,0.86,0.44,-0.01,-0.0,-0.01,-3.69,3.33,8.48,0.0,0.0,0.0,-2.74,4.09,8.47
1738244961.2041276,56377,0,0,,0.0,-0.03,0.26,0.86,0.44,-0.01,0.02,-0.04,-3.78,3.08,8.61,0.0,0.0,0.0,-2.74,4.09,8.47
1738244961.2196991,56378,0,0,,0.0,-0.03,0.26,0.86,0.44,-0.0,0.01,-0.03,-3.23,3.49,8.3,0.0,0.0,0.0,-2.74,4.08,8.47
1738244961.2384996,56379,0,0,,0.0,-0.03,0.26,0.86,0.44,-0.0,-0.03,-0.01,-3.81,3.37,8.56,0.0,0.0,0.0,-2.74,4.08,8.47
1738244961.2533424,56380,0,0,,0.0,-0.03,0.26,0.86,0.44,-0.0,0.01,-0.03,-3.27,3.01,8.34,0.0,0.0,0.0,-2.74,4.08,8.47
1738244961.2686605,56381,0,0,,0.0,-0.03,0.26,0.86,0.44,0.01,0.03,-0.04,-4.07,2.88,8.39,0.0,0.0,0.0,-2.75,4.08,8.47
1738244961.2879813,56382,0,0,,0.0,-0.03,0.26,0.86,0.44,0.03,0.02,-0.02,-3.39,3.32,8.31,0.0,0.0,0.0,-2.75,4.08,8.47
1738244961.3024669,56383,0,0,,0.0,-0.03,0.26,0.86,0.44,0.04,0.01,0.01,-3.98,3.28,8.6,0.0,0.0,0.0,-2.76,4.09,8.47
1738244961.3177495,56384,0,0,,0.0,-0.03,0.26,0.86,0.44,0.04,0.04,-0.01,-5.2,2.94,8.14,0.0,0.0,0.0,-2.77,4.1,8.46
1738244961.3375819,56385,0,0,,0.0,-0.03,0.26,0.86,0.44,0.05,0.07,-0.03,-4.04,3.13,8.6,0.0,0.0,0.0,-2.77,4.1,8.46
1738244961.3525739,56386,0,0,,0.0,-0.03,0.26,0.86,0.44,0.06,0.04,-0.02,-2.26,3.76,8.91,0.0,0.0,0.0,-2.78,4.11,8.45
1738244961.3674295,56387,0,0,,0.0,-0.03,0.26,0.86,0.44,0.06,0.01,0.0,-3.83,3.16,8.44,0.0,0.0,0.0,-2.78,4.12,8.44
1738244961.3879943,56388,0,0,,0.0,-0.03,0.26,0.86,0.44,0.06,0.03,-0.01,-5.42,2.72,8.09,0.0,0.0,0.0,-2.79,4.12,8.44
1738244961.4022307,56389,0,0,,0.0,-0.03,0.26,0.86,0.44,0.07,0.06,-0.02,-4.13,2.85,8.33,0.0,0.0,0.0,-2.8,4.13,8.43
1738244961.4179904,56390,0,0,,0.0,-0.03,0.26,0.86,0.44,0.08,0.08,-0.03,-4.0,3.34,8.49,0.0,0.0,0.0,-2.81,4.15,8.42
1738244961.4377568,56391,0,0,,0.0,-0.03,0.26,0.86,0.44,0.09,0.07,-0.01,-3.93,3.15,8.36,0.0,0.0,0.0,-2.82,4.15,8.42
1738244961.4524186,56392,0,0,,0.0,-0.03,0.27,0.86,0.44,0.1,0.11,-0.03,-5.28,3.07,8.02,0.0,0.0,0.0,-2.84,4.17,8.4
1738244961.4678824,56393,0,0,,0.0,-0.03,0.27,0.85,0.44,0.1,0.15,-0.05,-3.83,3.17,8.44,0.0,0.0,0.0,-2.87,4.18,8.38
1738244961.4878426,56394,0,0,,0.0,-0.03,0.27,0.85,0.44,0.13,0.19,-0.08,-2.79,3.99,8.94,0.0,0.0,0.0,-2.89,4.19,8.37
1738244961.5022151,56395,0,0,,0.0,-0.03,0.27,0.85,0.44,0.14,0.26,-0.15,-3.07,3.28,8.39,0.0,0.0,0.0,-2.93,4.21,8.35
1738244961.5182514,56396,0,0,,0.0,-0.04,0.27,0.85,0.45,0.14,0.31,-0.19,-4.78,2.98,7.64,0.0,0.0,0.0,-3.01,4.22,8.32
1738244961.537949,56397,0,0,,0.0,-0.04,0.27,0.85,0.45,0.17,0.51,-0.26,-3.91,3.49,9.34,0.0,0.0,0.0,-3.06,4.22,8.29
1738244961.552803,56398,0,0,,0.0,-0.04,0.28,0.85,0.45,0.21,0.63,-0.24,-2.28,3.3,7.99,0.0,0.0,0.0,-3.18,4.24,8.24
1738244961.5681906,56399,0,0,,0.0,-0.05,0.28,0.85,0.45,0.23,0.78,-0.3,-4.38,3.4,8.6,0.0,0.0,0.0,-3.35,4.26,8.17
1738244961.5883634,56400,0,0,,0.0,-0.06,0.29,0.84,0.45,0.25,1.05,-0.39,-4.36,2.82,8.2,0.0,0.0,0.0,-3.45,4.26,8.12
1738244961.6026309,56401,0,0,,0.0,-0.07,0.29,0.84,0.45,0.31,1.31,-0.4,-4.91,3.51,8.08,0.0,0.0,0.0,-3.68,4.28,8.01
1738244961.6179647,56402,0,0,,0.0,-0.08,0.3,0.84,0.45,0.33,1.39,-0.39,-3.79,3.31,8.14,0.0,0.0,0.0,-3.93,4.31,7.88
1738244961.6381388,56403,0,0,,0.0,-0.08,0.31,0.84,0.45,0.34,1.59,-0.41,-4.21,3.37,7.84,0.0,0.0,0.0,-4.07,4.32,7.8
1738244961.6526186,56404,0,0,,0.0,-0.1,0.32,0.83,0.44,0.31,1.78,-0.48,-4.84,3.0,7.34,0.0,0.0,0.0,-4.36,4.33,7.63
1738244961.6675756,56405,0,0,,0.0,-0.11,0.33,0.83,0.44,0.32,1.82,-0.48,-5.99,3.59,7.21,0.0,0.0,0.0,-4.68,4.33,7.44
1738244961.6883545,56406,0,0,,0.0,-0.12,0.33,0.82,0.44,0.26,1.94,-0.54,-4.7,3.61,7.3,0.0,0.0,0.0,-4.84,4.32,7.34
1738244961.7027545,56407,0,0,,0.0,-0.14,0.34,0.82,0.44,0.17,2.02,-0.63,-6.8,2.89,6.33,0.0,0.0,0.0,-5.17,4.29,7.13
1738244961.7179885,56408,0,0,,0.0,-0.16,0.35,0.81,0.44,0.15,2.11,-0.69,-7.52,3.04,6.85,0.0,0.0,0.0,-5.52,4.24,6.9
1738244961.7382429,56409,0,0,,0.0,-0.17,0.36,0.81,0.44,0.15,2.23,-0.77,-6.08,3.7,7.42,0.0,0.0,0.0,-5.7,4.2,6.77
1738244961.7530322,56410,0,0,,0.0,-0.19,0.37,0.8,0.44,0.11,2.37,-0.89,-6.47,3.76,6.69,0.0,0.0,0.0,-6.07,4.12,6.5
1738244961.7681255,56411,0,0,,0.0,-0.21,0.37,0.79,0.44,0.05,2.51,-0.99,-6.31,3.54,6.5,0.0,0.0,0.0,-6.47,4.0,6.18
1738244961.7888062,56412,0,0,,0.0,-0.22,0.38,0.78,0.44,-0.03,2.84,-1.23,-7.68,3.58,6.65,0.0,0.0,0.0,-6.68,3.92,6.0
1738244961.8032904,56413,0,0,,0.0,-0.25,0.39,0.77,0.44,0.02,3.21,-1.5,-8.75,2.83,7.37,0.0,0.0,0.0,-7.13,3.73,5.59
1738244961.8186388,56414,0,0,,0.0,-0.29,0.4,0.75,0.44,0.2,3.61,-1.91,-10.87,6.18,9.54,0.0,0.0,0.0,-7.64,3.48,5.06
1738244961.8380432,56415,0,0,,0.0,-0.3,0.4,0.74,0.44,-0.09,3.48,-2.06,-10.54,5.0,8.13,0.0,0.0,0.0,-7.87,3.32,4.8
1738244961.8533294,56416,0,0,,0.0,-0.34,0.41,0.73,0.44,-0.44,3.53,-2.45,-11.04,5.07,9.04,0.0,0.0,0.0,-8.32,2.91,4.28
1738244961.8684618,56417,0,0,,0.0,-0.38,0.41,0.7,0.44,-0.18,3.75,-2.76,-10.82,6.63,10.65,0.0,0.0,0.0,-8.75,2.44,3.66
1738244961.888164,56418,0,0,,0.0,-0.39,0.42,0.69,0.44,-0.21,3.7,-2.89,-9.35,6.78,9.69,0.0,0.0,0.0,-8.95,2.18,3.35
1738244961.903739,56419,0,0,,0.0,-0.43,0.42,0.66,0.45,-0.53,3.12,-3.01,-10.97,4.98,10.99,0.0,0.0,0.0,-9.26,1.61,2.78
1738244961.9191,56420,0,0,,0.0,-0.45,0.41,0.65,0.46,0.12,1.3,-1.76,-8.73,8.84,10.34,0.0,0.0,0.0,-9.37,1.3,2.54
1738244961.9382696,56421,0,0,,0.0,-0.45,0.41,0.65,0.46,-0.38,1.06,-1.35,-5.65,4.5,5.38,0.0,0.0,0.0,-9.42,1.17,2.45
1738244961.9533405,56422,0,0,,0.0,-0.47,0.41,0.64,0.46,-0.51,1.05,-0.76,-6.03,3.78,5.51,0.0,0.0,0.0,-9.48,0.98,2.27
1738244961.9684927,56423,0,0,,0.0,-0.47,0.41,0.64,0.45,-0.23,0.7,-0.35,-5.51,3.8,5.79,0.0,0.0,0.0,-9.52,0.9,2.14
1738244961.98858,56424,0,0,,0.0,-0.47,0.41,0.63,0.45,-0.22,0.41,-0.17,-5.13,2.61,5.57,0.0,0.0,0.0,-9.53,0.88,2.1
1738244962.0029058,56425,0,0,,0.0,-0.47,0.41,0.64,0.45,0.02,-0.27,0.26,-4.85,1.97,5.13,0.0,0.0,0.0,-9.52,0.91,2.12
1738244962.0188024,56426,0,0,,0.0,-0.46,0.41,0.64,0.45,0.22,-0.86,0.67,-5.26,1.83,5.3,0.0,0.0,0.0,-9.47,1.04,2.28
1738244962.038418,56427,0,0,,0.0,-0.46,0.41,0.65,0.45,0.25,-1.19,0.87,-5.37,0.49,4.97,0.0,0.0,0.0,-9.44,1.13,2.38
1738244962.0531356,56428,0,0,,0.0,-0.44,0.41,0.66,0.45,0.29,-1.77,1.02,-5.87,-0.46,5.08,0.0,0.0,0.0,-9.33,1.32,2.68
1738244962.0682585,56429,0,0,,0.0,-0.42,0.41,0.67,0.46,0.33,-2.33,0.95,-6.15,-0.26,5.11,0.0,0.0,0.0,-9.18,1.51,3.08
1738244962.0887706,56430,0,0,,0.0,-0.41,0.4,0.68,0.46,0.3,-2.81,0.91,-6.76,0.33,5.26,0.0,0.0,0.0,-9.08,1.6,3.33
1738244962.1034784,56431,0,0,,0.0,-0.39,0.39,0.69,0.47,0.31,-3.03,0.99,-7.19,1.12,5.29,0.0,0.0,0.0,-8.84,1.79,3.82
1738244962.118092,56432,0,0,,0.0,-0.36,0.38,0.71,0.47,0.24,-3.4,1.25,-7.07,0.69,4.9,0.0,0.0,0.0,-8.53,2.02,4.39
1738244962.13891,56433,0,0,,0.0,-0.34,0.38,0.72,0.48,0.37,-3.48,1.32,-7.77,0.06,5.02,0.0,0.0,0.0,-8.35,2.14,4.66
1738244962.1536245,56434,0,0,,0.0,-0.31,0.37,0.73,0.48,0.4,-3.56,1.29,-8.98,0.41,5.9,0.0,0.0,0.0,-7.95,2.39,5.2
1738244962.1690269,56435,0,0,,0.0,-0.28,0.36,0.75,0.49,0.42,-3.8,1.23,-9.62,1.4,5.58,0.0,0.0,0.0,-7.73,2.5,5.48
1738244962.188603,56436,0,0,,0.0,-0.26,0.35,0.75,0.49,0.33,-3.79,1.42,-9.69,2.29,4.55,0.0,0.0,0.0,-7.24,2.74,6.01
1738244962.2031975,56437,0,0,,0.0,-0.23,0.34,0.77,0.49,0.29,-3.63,1.58,-9.89,2.44,4.32,0.0,0.0,0.0,-6.71,2.98,6.49
1738244962.218812,56438,0,0,,0.0,-0.2,0.33,0.78,0.49,0.3,-3.28,1.85,-10.1,2.61,4.6,0.0,0.0,0.0,-6.17,3.25,6.88
1738244962.238556,56439,0,0,,0.0,-0.18,0.33,0.79,0.48,0.27,-3.16,1.94,-10.09,2.34,5.33,0.0,0.0,0.0,-5.9,3.39,7.05
1738244962.2533772,56440,0,0,,0.0,-0.15,0.32,0.8,0.48,0.25,-2.91,2.03,-10.24,1.77,6.29,0.0,0.0,0.0,-5.35,3.64,7.36
1738244962.2690413,56441,0,0,,0.0,-0.12,0.31,0.82,0.47,0.27,-2.87,1.99,-10.16,1.69,6.49,0.0,0.0,0.0,-5.07,3.76,7.49
1738244962.2891998,56442,0,0,,0.0,-0.1,0.31,0.82,0.47,0.29,-2.82,1.93,-9.73,0.58,6.42,0.0,0.0,0.0,-4.5,3.99,7.74
1738244962.30366,56443,0,0,,0.0,-0.08,0.3,0.83,0.46,0.42,-2.56,1.7,-9.89,0.9,6.62,0.0,0.0,0.0,-3.98,4.19,7.91
1738244962.3186693,56444,0,0,,0.0,-0.05,0.29,0.84,0.46,0.38,-2.24,1.39,-10.04,1.22,6.82,0.0,0.0,0.0,-3.75,4.27,7.98
1738244962.33882,56445,0,0,,0.0,-0.04,0.29,0.84,0.46,0.39,-1.93,1.16,-10.46,1.89,7.22,0.0,0.0,0.0,-3.32,4.42,8.09
1738244962.353313,56446,0,0,,0.0,-0.02,0.29,0.84,0.45,0.35,-1.75,1.01,-10.2,1.47,6.46,0.0,0.0,0.0,-2.94,4.54,8.17
1738244962.368623,56447,0,0,,0.0,-0.01,0.28,0.85,0.45,0.37,-1.61,0.88,-9.93,0.71,6.11,0.0,0.0,0.0,-2.78,4.59,8.2
1738244962.3884475,56448,0,0,,0.0,0.0,0.28,0.85,0.45,0.42,-1.24,0.58,-9.61,0.79,5.97,0.0,0.0,0.0,-2.48,4.69,8.24
1738244962.4036174,56449,0,0,,0.0,0.01,0.28,0.85,0.45,0.27,-0.8,0.29,-8.67,0.82,5.02,0.0,0.0,0.0,-2.3,4.76,8.25
1738244962.4184747,56450,0,0,,0.0,0.02,0.28,0.85,0.45,0.12,-0.52,0.15,-8.26,0.94,4.49,0.0,0.0,0.0,-2.26,4.77,8.25
1738244962.4380903,56451,0,0,,0.0,0.02,0.28,0.85,0.45,-0.08,-0.16,-0.0,-7.62,0.73,2.68,0.0,0.0,0.0,-2.2,4.78,8.27
1738244962.4525766,56452,0,0,,0.0,0.01,0.28,0.85,0.45,-0.43,1.2,-0.21,-9.13,1.92,2.65,0.0,0.0,0.0,-2.37,4.71,8.26
1738244962.4679723,56453,0,0,,0.0,-0.0,0.28,0.85,0.45,-0.64,1.62,-0.19,-11.62,5.55,4.7,0.0,0.0,0.0,-2.51,4.65,8.25
1738244962.4874346,56454,0,0,,0.0,-0.03,0.27,0.85,0.45,-3.1,1.6,-1.13,-12.91,-7.13,12.87,0.0,0.0,0.0,-2.87,4.19,8.38
1738244962.5020447,56455,0,0,,0.0,-0.04,0.25,0.85,0.45,-0.41,-1.18,-0.1,1.27,3.63,6.27,0.0,0.0,0.0,-2.84,3.92,8.52
1738244962.516215,56456,0,0,,0.0,-0.03,0.25,0.85,0.46,-0.44,-0.79,-0.18,2.23,7.82,7.37,0.0,0.0,0.0,-2.78,3.87,8.56
1738244962.5319016,56457,0,0,,0.0,-0.04,0.25,0.85,0.46,-0.5,0.32,-0.34,-3.64,5.1,8.87,0.0,0.0,0.0,-2.83,3.77,8.59
1738244962.5509658,56458,0,0,,0.0,-0.04,0.24,0.85,0.46,-0.52,0.33,-0.33,-7.04,0.7,9.76,0.0,0.0,0.0,-2.87,3.71,8.6
1738244962.5653083,56459,0,0,,0.0,-0.04,0.24,0.85,0.46,-0.14,-0.01,-0.04,-3.45,1.63,9.65,0.0,0.0,0.0,-2.89,3.67,8.61
1738244962.5807621,56460,0,0,,0.0,-0.04,0.24,0.85,0.46,0.05,0.04,0.02,-3.89,0.91,8.95,0.0,0.0,0.0,-2.89,3.7,8.6
1738244962.6003182,56461,0,0,,0.0,-0.04,0.25,0.85,0.46,0.43,0.16,0.14,-4.23,0.85,8.48,0.0,0.0,0.0,-2.9,3.74,8.58
1738244962.6146138,56462,0,0,,0.0,-0.04,0.25,0.85,0.46,0.62,0.2,0.19,-4.12,2.3,8.61,0.0,0.0,0.0,-2.92,3.85,8.53
1738244962.6313565,56463,0,0,,0.0,-0.04,0.26,0.85,0.45,0.59,0.15,0.19,-3.37,3.89,8.34,0.0,0.0,0.0,-2.93,3.95,8.48
1738244962.6504955,56464,0,0,,0.0,-0.04,0.26,0.85,0.45,0.43,0.14,0.12,-3.84,4.21,8.19,0.0,0.0,0.0,-2.94,3.99,8.45
1738244962.664936,56465,0,0,,0.0,-0.04,0.26,0.85,0.45,0.23,0.06,0.05,-4.61,3.24,8.4,0.0,0.0,0.0,-2.95,4.04,8.43
1738244962.6810434,56466,0,0,,0.0,-0.04,0.26,0.85,0.45,0.18,0.0,0.04,-4.14,3.15,8.28,0.0,0.0,0.0,-2.94,4.07,8.41
1738244962.7004912,56467,0,0,,0.0,-0.03,0.27,0.85,0.45,0.22,-0.05,0.07,-2.98,2.85,8.92,0.0,0.0,0.0,-2.94,4.09,8.41
1738244962.7150412,56468,0,0,,0.0,-0.03,0.27,0.85,0.45,0.27,-0.02,0.09,-3.59,2.94,8.34,0.0,0.0,0.0,-2.93,4.14,8.39
1738244962.7319114,56469,0,0,,0.0,-0.03,0.27,0.85,0.45,0.25,0.01,0.08,-3.85,3.04,8.11,0.0,0.0,0.0,-2.92,4.18,8.37
1738244962.7503479,56470,0,0,,0.0,-0.03,0.27,0.85,0.45,0.15,0.02,0.07,-3.67,3.97,7.94,0.0,0.0,0.0,-2.92,4.19,8.36
1738244962.7652807,56471,0,0,,0.0,-0.03,0.27,0.85,0.45,0.06,0.04,0.01,-3.31,3.66,8.55,0.0,0.0,0.0,-2.92,4.21,8.35
1738244962.7810907,56472,0,0,,0.0,-0.03,0.27,0.85,0.45,-0.01,0.04,-0.02,-5.41,3.48,8.02,0.0,0.0,0.0,-2.93,4.2,8.35
1738244962.8006198,56473,0,0,,0.0,-0.03,0.27,0.85,0.45,-0.12,0.0,-0.08,-4.34,3.51,8.28,0.0,0.0,0.0,-2.94,4.19,8.36
1738244962.815515,56474,0,0,,0.0,-0.03,0.27,0.85,0.45,-0.14,-0.06,-0.07,-2.83,3.27,9.0,0.0,0.0,0.0,-2.94,4.16,8.37
1738244962.8313026,56475,0,0,,0.0,-0.03,0.27,0.85,0.45,-0.11,-0.04,-0.06,-3.75,3.02,8.63,0.0,0.0,0.0,-2.93,4.14,8.38
1738244962.8511775,56476,0,0,,0.0,-0.03,0.27,0.85,0.45,-0.05,-0.02,-0.03,-3.79,2.68,8.63,0.0,0.0,0.0,-2.93,4.14,8.38
1738244962.8653471,56477,0,0,,0.0,-0.03,0.27,0.85,0.45,-0.04,-0.03,-0.0,-4.69,2.83,8.42,0.0,0.0,0.0,-2.93,4.13,8.39
1738244962.8814104,56478,0,0,,0.0,-0.03,0.27,0.85,0.45,-0.04,-0.05,0.01,-2.64,3.49,8.76,0.0,0.0,0.0,-2.92,4.13,8.39
1738244962.9008691,56479,0,0,,0.0,-0.03,0.27,0.85,0.45,-0.06,-0.03,-0.01,-3.45,3.26,8.42,0.0,0.0,0.0,-2.92,4.12,8.4
1738244962.9157283,56480,0,0,,0.0,-0.03,0.26,0.85,0.45,-0.1,-0.01,-0.05,-5.07,3.23,7.96,0.0,0.0,0.0,-2.92,4.1,8.41
1738244962.9313169,56481,0,0,,0.0,-0.03,0.26,0.85,0.45,-0.11,-0.04,-0.05,-3.69,3.31,8.17,0.0,0.0,0.0,-2.92,4.08,8.42
1738244962.9513357,56482,0,0,,0.0,-0.03,0.26,0.85,0.45,-0.11,-0.08,-0.03,-2.54,3.38,8.72,0.0,0.0,0.0,-2.91,4.07,8.42
1738244962.965453,56483,0,0,,0.0,-0.03,0.26,0.85,0.45,-0.08,-0.06,-0.03,-3.31,3.08,8.55,0.0,0.0,0.0,-2.91,4.05,8.43
1738244962.981672,56484,0,0,,0.0,-0.03,0.26,0.85,0.46,-0.07,-0.03,-0.05,-4.08,2.65,8.57,0.0,0.0,0.0,-2.9,4.04,8.44
1738244963.001343,56485,0,0,,0.0,-0.03,0.26,0.85,0.46,-0.02,-0.05,-0.01,-4.66,2.51,8.37,0.0,0.0,0.0,-2.9,4.04,8.44
1738244963.0156102,56486,0,0,,0.0,-0.03,0.26,0.85,0.46,0.02,-0.06,0.01,-3.93,3.24,8.54,0.0,0.0,0.0,-2.88,4.04,8.45
1738244963.0316808,56487,0,0,,0.0,-0.03,0.26,0.85,0.46,0.03,-0.06,0.01,-3.62,2.81,8.41,0.0,0.0,0.0,-2.88,4.05,8.45
1738244963.0506992,56488,0,0,,0.0,-0.03,0.26,0.85,0.46,0.05,-0.02,0.01,-3.98,2.86,8.56,0.0,0.0,0.0,-2.87,4.05,8.44
1738244963.0659719,56489,0,0,,0.0,-0.03,0.26,0.85,0.46,0.07,-0.03,0.02,-3.48,3.36,8.33,0.0,0.0,0.0,-2.87,4.07,8.44
1738244963.0817688,56490,0,0,,0.0,-0.03,0.26,0.85,0.46,0.07,-0.04,0.02,-3.88,3.17,8.5,0.0,0.0,0.0,-2.86,4.08,8.44
1738244963.1014345,56491,0,0,,0.0,-0.03,0.26,0.85,0.46,0.04,-0.03,0.0,-3.63,3.12,8.33,0.0,0.0,0.0,-2.86,4.08,8.44
1738244963.1154187,56492,0,0,,0.0,-0.03,0.26,0.85,0.46,0.02,-0.05,-0.01,-4.05,3.18,8.54,0.0,0.0,0.0,-2.85,4.08,8.44
1738244963.1318579,56493,0,0,,0.0,-0.03,0.26,0.85,0.46,0.0,-0.04,-0.02,-2.38,3.7,8.8,0.0,0.0,0.0,-2.85,4.08,8.44
1738244963.15124,56494,0,0,,0.0,-0.03,0.26,0.85,0.46,-0.01,-0.04,-0.03,-3.96,3.28,8.55,0.0,0.0,0.0,-2.85,4.08,8.44
1738244963.1658585,56495,0,0,,0.0,-0.03,0.26,0.85,0.46,-0.01,-0.01,-0.05,-5.28,2.73,8.14,0.0,0.0,0.0,-2.84,4.08,8.44
1738244963.181897,56496,0,0,,0.0,-0.03,0.26,0.85,0.46,0.0,-0.04,-0.03,-4.52,2.72,8.32,0.0,0.0,0.0,-2.84,4.08,8.44
1738244963.201247,56497,0,0,,0.0,-0.03,0.26,0.85,0.46,0.02,-0.04,-0.02,-3.52,3.08,8.34,0.0,0.0,0.0,-2.84,4.08,8.44
1738244963.2163699,56498,0,0,,0.0,-0.03,0.26,0.85,0.46,0.03,-0.03,-0.01,-3.67,3.02,8.58,0.0,0.0,0.0,-2.83,4.08,8.44
1738244963.232425,56499,0,0,,0.0,-0.03,0.26,0.85,0.46,0.03,-0.01,-0.02,-5.03,2.62,8.14,0.0,0.0,0.0,-2.84,4.09,8.44
1738244963.251437,56500,0,0,,0.0,-0.03,0.26,0.85,0.46,0.06,-0.01,-0.0,-4.58,2.69,8.32,0.0,0.0,0.0,-2.83,4.09,8.44
1738244963.2657757,56501,0,0,,0.0,-0.03,0.26,0.85,0.46,0.07,-0.03,0.02,-2.53,3.63,8.87,0.0,0.0,0.0,-2.83,4.11,8.44
1738244963.2822237,56502,0,0,,0.0,-0.03,0.26,0.85,0.46,0.08,-0.01,0.01,-3.81,3.25,8.56,0.0,0.0,0.0,-2.83,4.12,8.43
1738244963.3012064,56503,0,0,,0.0,-0.03,0.26,0.85,0.46,0.09,0.03,-0.01,-5.29,2.52,8.18,0.0,0.0,0.0,-2.83,4.13,8.42
1738244963.3160229,56504,0,0,,0.0,-0.03,0.26,0.85,0.46,0.13,0.03,0.01,-3.79,3.11,8.26,0.0,0.0,0.0,-2.84,4.15,8.41
1738244963.3322215,56505,0,0,,0.0,-0.03,0.27,0.85,0.46,0.15,0.01,0.03,-2.37,3.72,8.88,0.0,0.0,0.0,-2.84,4.17,8.4
1738244963.3514154,56506,0,0,,0.0,-0.03,0.27,0.85,0.46,0.15,0.03,0.02,-4.03,3.2,8.33,0.0,0.0,0.0,-2.84,4.19,8.39
1738244963.3660147,56507,0,0,,0.0,-0.03,0.27,0.85,0.46,0.16,0.06,0.0,-4.4,2.99,8.46,0.0,0.0,0.0,-2.85,4.21,8.38
1738244963.3827732,56508,0,0,,0.0,-0.03,0.27,0.85,0.46,0.17,0.06,0.01,-4.16,2.83,8.32,0.0,0.0,0.0,-2.85,4.24,8.36
1738244963.4013045,56509,0,0,,0.0,-0.03,0.27,0.85,0.46,0.19,0.03,0.02,-3.66,3.51,8.44,0.0,0.0,0.0,-2.85,4.26,8.35
1738244963.4161263,56510,0,0,,0.0,-0.03,0.27,0.85,0.46,0.18,0.06,-0.01,-3.16,3.42,8.48,0.0,0.0,0.0,-2.86,4.29,8.33
1738244963.4324574,56511,0,0,,0.0,-0.03,0.27,0.85,0.46,0.18,0.1,-0.04,-5.34,2.98,8.05,0.0,0.0,0.0,-2.88,4.31,8.31
1738244963.4516625,56512,0,0,,0.0,-0.03,0.28,0.85,0.46,0.18,0.11,-0.06,-3.86,3.42,7.76,0.0,0.0,0.0,-2.89,4.32,8.3
1738244963.4662666,56513,0,0,,0.0,-0.03,0.28,0.84,0.46,0.16,0.21,-0.12,-2.68,3.83,8.34,0.0,0.0,0.0,-2.93,4.35,8.28
1738244963.4828568,56514,0,0,,0.0,-0.03,0.28,0.84,0.46,0.13,0.2,-0.12,-3.72,4.36,9.25,0.0,0.0,0.0,-2.98,4.36,8.26
1738244963.5021968,56515,0,0,,0.0,-0.03,0.28,0.84,0.46,0.11,0.35,-0.27,-3.56,3.22,7.64,0.0,0.0,0.0,-3.02,4.36,8.24
1738244963.51674,56516,0,0,,0.0,-0.03,0.28,0.84,0.46,0.13,0.52,-0.36,-3.01,3.24,8.59,0.0,0.0,0.0,-3.12,4.36,8.2
1738244963.5325105,56517,0,0,,0.0,-0.04,0.29,0.84,0.46,0.15,0.63,-0.36,-2.82,3.26,8.93,0.0,0.0,0.0,-3.27,4.36,8.14
1738244963.5516653,56518,0,0,,0.0,-0.05,0.29,0.84,0.46,0.19,0.9,-0.36,-3.02,3.22,8.42,0.0,0.0,0.0,-3.35,4.36,8.11
1738244963.566267,56519,0,0,,0.0,-0.05,0.3,0.83,0.46,0.25,1.26,-0.37,-3.61,2.68,8.48,0.0,0.0,0.0,-3.57,4.37,8.01
1738244963.583206,56520,0,0,,0.0,-0.07,0.31,0.83,0.46,0.28,1.47,-0.41,-4.89,3.24,7.94,0.0,0.0,0.0,-3.84,4.39,7.87
1738244963.6018178,56521,0,0,,0.0,-0.07,0.31,0.83,0.46,0.33,1.77,-0.49,-4.78,3.96,7.94,0.0,0.0,0.0,-3.99,4.4,7.79
1738244963.6168458,56522,0,0,,0.0,-0.09,0.32,0.82,0.46,0.3,2.01,-0.63,-5.07,3.4,7.5,0.0,0.0,0.0,-4.33,4.4,7.61
1738244963.633315,56523,0,0,,0.0,-0.11,0.33,0.82,0.46,0.27,2.1,-0.69,-4.96,3.3,7.6,0.0,0.0,0.0,-4.71,4.37,7.4
1738244963.6521719,56524,0,0,,0.0,-0.13,0.34,0.81,0.46,0.2,2.3,-0.86,-5.26,4.17,8.03,0.0,0.0,0.0,-4.91,4.35,7.28
1738244963.6665475,56525,0,0,,0.0,-0.14,0.35,0.81,0.46,0.04,2.53,-1.05,-5.15,4.46,7.81,0.0,0.0,0.0,-5.33,4.26,7.03
1738244963.68333,56526,0,0,,0.0,-0.17,0.36,0.8,0.46,-0.1,2.7,-1.18,-5.77,3.99,6.84,0.0,0.0,0.0,-5.81,4.1,6.74
1738244963.702875,56527,0,0,,0.0,-0.2,0.37,0.78,0.46,-0.28,3.13,-1.52,-6.34,3.24,7.05,0.0,0.0,0.0,-6.07,4.0,6.57
1738244963.7166631,56528,0,0,,0.0,-0.21,0.38,0.78,0.46,0.44,3.55,-1.79,-8.72,3.73,8.05,0.0,0.0,0.0,-6.63,3.81,6.13
1738244963.7333941,56529,0,0,,0.0,-0.25,0.39,0.76,0.46,0.46,3.66,-1.96,-9.04,5.15,8.73,0.0,0.0,0.0,-7.2,3.56,5.61
1738244963.7525783,56530,0,0,,0.0,-0.28,0.4,0.74,0.46,-0.36,3.55,-2.48,-10.42,5.28,9.22,0.0,0.0,0.0,-7.47,3.37,5.37
1738244963.7675202,56531,0,0,,0.0,-0.3,0.4,0.73,0.47,-0.66,3.48,-2.84,-9.8,4.86,8.98,0.0,0.0,0.0,-7.98,2.89,4.89
1738244963.7840104,56532,0,0,,0.0,-0.34,0.4,0.71,0.47,-0.61,3.51,-2.99,-6.84,3.16,8.39,0.0,0.0,0.0,-8.46,2.34,4.35
1738244963.8030567,56533,0,0,,0.0,-0.39,0.4,0.68,0.48,-0.58,3.93,-3.46,-6.6,4.0,8.12,0.0,0.0,0.0,-8.69,2.03,4.04
1738244963.8175445,56534,0,0,,0.0,-0.41,0.4,0.66,0.48,-0.74,3.94,-3.95,-9.1,-0.14,9.57,0.0,0.0,0.0,-9.11,1.31,3.37
1738244963.8346348,56535,0,0,,0.0,-0.44,0.4,0.63,0.5,-0.04,3.13,-3.98,-10.45,3.82,12.29,0.0,0.0,0.0,-9.34,0.62,2.89
1738244963.8525696,56536,0,0,,0.0,-0.46,0.39,0.61,0.52,0.5,1.49,-3.73,-9.39,6.42,10.98,0.0,0.0,0.0,-9.4,0.3,2.75
1738244963.8680975,56537,0,0,,0.0,-0.47,0.39,0.6,0.52,0.08,0.42,-2.58,-7.55,7.23,8.83,0.0,0.0,0.0,-9.44,-0.22,2.63
1738244963.884799,56538,0,0,,0.0,-0.47,0.38,0.59,0.53,0.18,-0.1,-1.73,-4.93,8.0,5.97,0.0,0.0,0.0,-9.42,-0.45,2.68
1738244963.902967,56539,0,0,,0.0,-0.46,0.38,0.6,0.53,0.0,-0.58,-0.28,-3.22,6.71,4.04,0.0,0.0,0.0,-9.4,-0.48,2.73
1738244963.9169724,56540,0,0,,0.0,-0.46,0.38,0.6,0.53,-0.15,-0.63,0.71,-3.15,4.47,4.05,0.0,0.0,0.0,-9.37,-0.4,2.84
1738244963.9348135,56541,0,0,,0.0,-0.45,0.38,0.61,0.53,0.06,-0.74,1.14,-3.97,3.97,5.0,0.0,0.0,0.0,-9.33,-0.15,3.0
1738244963.9530904,56542,0,0,,0.0,-0.43,0.38,0.63,0.52,0.3,-1.36,1.81,-5.01,2.7,5.93,0.0,0.0,0.0,-9.29,0.01,3.12
1738244963.9675944,56543,0,0,,0.0,-0.42,0.38,0.63,0.52,0.37,-1.94,1.98,-5.3,0.45,5.94,0.0,0.0,0.0,-9.17,0.38,3.45
1738244963.9847007,56544,0,0,,0.0,-0.4,0.38,0.65,0.52,0.38,-2.24,1.92,-6.38,0.4,6.5,0.0,0.0,0.0,-8.98,0.74,3.86
1738244964.0033245,56545,0,0,,0.0,-0.37,0.37,0.67,0.52,0.37,-2.88,1.73,-6.89,-0.22,6.62,0.0,0.0,0.0,-8.85,0.9,4.11
1738244964.017719,56546,0,0,,0.0,-0.36,0.37,0.68,0.53,0.55,-3.39,1.56,-7.31,-0.94,6.15,0.0,0.0,0.0,-8.54,1.21,4.65
1738244964.035535,56547,0,0,,0.0,-0.32,0.36,0.7,0.53,0.74,-3.58,1.48,-7.52,-1.23,5.92,0.0,0.0,0.0,-8.15,1.53,5.22
1738244964.0530546,56548,0,0,,0.0,-0.29,0.35,0.71,0.54,1.08,-3.81,1.29,-8.36,-0.91,5.65,0.0,0.0,0.0,-7.93,1.68,5.5
1738244964.067786,56549,0,0,,0.0,-0.27,0.35,0.72,0.54,1.13,-3.9,1.18,-9.45,-0.44,5.09,0.0,0.0,0.0,-7.46,1.99,6.04
1738244964.085239,56550,0,0,,0.0,-0.23,0.34,0.73,0.55,1.14,-3.84,1.17,-9.88,-0.18,5.0,0.0,0.0,0.0,-6.95,2.29,6.52
1738244964.1029892,56551,0,0,,0.0,-0.2,0.33,0.74,0.55,1.13,-3.58,1.25,-10.66,0.19,4.66,0.0,0.0,0.0,-6.69,2.45,6.73
1738244964.1182013,56552,0,0,,0.0,-0.18,0.33,0.74,0.56,1.06,-3.2,1.46,-10.75,0.66,4.27,0.0,0.0,0.0,-6.17,2.77,7.09
1738244964.135344,56553,0,0,,0.0,-0.15,0.32,0.75,0.55,0.97,-2.94,1.58,-10.62,0.73,4.08,0.0,0.0,0.0,-5.69,3.08,7.36
1738244964.1534286,56554,0,0,,0.0,-0.12,0.32,0.76,0.55,0.79,-2.42,1.84,-10.37,0.88,4.8,0.0,0.0,0.0,-5.46,3.24,7.47
1738244964.167954,56555,0,0,,0.0,-0.11,0.31,0.77,0.54,0.65,-2.06,2.04,-10.0,0.44,6.1,0.0,0.0,0.0,-5.01,3.54,7.64
1738244964.1858141,56556,0,0,,0.0,-0.09,0.31,0.78,0.53,0.58,-1.93,2.08,-9.84,0.25,6.38,0.0,0.0,0.0,-4.58,3.82,7.77
1738244964.2034872,56557,0,0,,0.0,-0.07,0.31,0.79,0.52,0.48,-1.75,2.09,-9.48,0.14,6.96,0.0,0.0,0.0,-4.37,3.95,7.83
1738244964.2179484,56558,0,0,,0.0,-0.06,0.3,0.8,0.52,0.38,-1.62,2.09,-9.51,0.79,7.64,0.0,0.0,0.0,-3.95,4.18,7.93
1738244964.2360547,56559,0,0,,0.0,-0.04,0.3,0.81,0.51,0.32,-1.56,2.11,-9.59,1.08,7.59,0.0,0.0,0.0,-3.54,4.37,8.02
1738244964.2533214,56560,0,0,,0.0,-0.02,0.29,0.82,0.49,0.13,-1.35,2.16,-9.51,1.31,6.66,0.0,0.0,0.0,-3.35,4.46,8.06
1738244964.2683148,56561,0,0,,0.0,-0.01,0.29,0.82,0.49,0.01,-1.01,2.16,-9.71,0.9,6.29,0.0,0.0,0.0,-2.98,4.59,8.12
1738244964.2856338,56562,0,0,,0.0,-0.0,0.29,0.83,0.47,-0.01,-0.84,2.11,-9.82,0.61,6.26,0.0,0.0,0.0,-2.68,4.71,8.17
1738244964.3035893,56563,0,0,,0.0,0.01,0.29,0.84,0.46,0.0,-0.51,1.79,-9.69,-0.64,5.86,0.0,0.0,0.0,-2.56,4.75,8.18
1738244964.3183987,56564,0,0,,0.0,0.01,0.29,0.84,0.46,0.05,-0.17,1.17,-9.51,-1.33,5.57,0.0,0.0,0.0,-2.39,4.82,8.19
1738244964.3354971,56565,0,0,,0.0,0.01,0.29,0.85,0.45,0.03,0.04,0.77,-9.45,-1.44,4.84,0.0,0.0,0.0,-2.36,4.85,8.18
1738244964.3537335,56566,0,0,,0.0,0.0,0.29,0.84,0.45,-0.02,0.5,-0.07,-9.55,-1.7,3.87,0.0,0.0,0.0,-2.41,4.84,8.17
1738244964.3680382,56567,0,0,,0.0,-0.01,0.29,0.84,0.45,-1.09,1.32,-1.06,-12.68,-1.03,5.37,0.0,0.0,0.0,-2.65,4.71,8.18
1738244964.3854134,56568,0,0,,0.0,-0.02,0.28,0.84,0.46,-1.59,1.27,-1.28,-11.99,-2.15,7.54,0.0,0.0,0.0,-2.9,4.37,8.27
1738244964.4035683,56569,0,0,,0.0,-0.02,0.27,0.85,0.46,-1.69,-0.22,-0.46,-11.85,3.51,15.8,0.0,0.0,0.0,-2.9,4.23,8.35
1738244964.418148,56570,0,0,,0.0,-0.02,0.26,0.85,0.46,-0.25,-0.69,-0.02,1.96,5.28,8.06,0.0,0.0,0.0,-2.77,4.18,8.42
1738244964.4357512,56571,0,0,,0.0,-0.03,0.26,0.85,0.46,-0.41,-0.06,-0.2,-1.07,8.01,10.41,0.0,0.0,0.0,-2.81,4.09,8.45
1738244964.4534357,56572,0,0,,0.0,-0.03,0.26,0.85,0.47,-0.65,0.41,-0.38,-7.57,2.93,8.61,0.0,0.0,0.0,-2.86,4.03,8.46
1738244964.4683602,56573,0,0,,0.0,-0.03,0.26,0.85,0.47,-0.49,0.02,-0.15,-5.09,0.98,9.17,0.0,0.0,0.0,-2.9,3.93,8.5
1738244964.4861403,56574,0,0,,0.0,-0.03,0.25,0.85,0.47,-0.3,-0.06,-0.03,-3.01,1.59,8.98,0.0,0.0,0.0,-2.89,3.89,8.52
1738244964.5032976,56575,0,0,,0.0,-0.03,0.25,0.85,0.47,0.03,0.01,0.09,-2.85,1.84,8.91,0.0,0.0,0.0,-2.89,3.9,8.51
1738244964.5178552,56576,0,0,,0.0,-0.03,0.26,0.85,0.47,0.15,0.13,0.07,-4.08,2.94,8.5,0.0,0.0,0.0,-2.9,3.92,8.5
1738244964.5359466,56577,0,0,,0.0,-0.03,0.26,0.85,0.47,0.14,0.14,0.05,-4.06,2.97,8.2,0.0,0.0,0.0,-2.92,3.95,8.48
1738244964.5537798,56578,0,0,,0.0,-0.03,0.26,0.85,0.46,0.08,0.07,0.03,-3.15,3.64,8.56,0.0,0.0,0.0,-2.92,3.96,8.48
1738244964.567658,56579,0,0,,0.0,-0.04,0.26,0.85,0.46,0.02,0.09,-0.04,-4.29,2.67,8.2,0.0,0.0,0.0,-2.94,3.96,8.47
1738244964.586375,56580,0,0,,0.0,-0.04,0.26,0.85,0.47,0.02,0.09,-0.07,-5.21,2.78,8.11,0.0,0.0,0.0,-2.95,3.96,8.46
1738244964.603674,56581,0,0,,0.0,-0.04,0.26,0.85,0.47,0.04,0.02,-0.02,-3.78,2.76,8.72,0.0,0.0,0.0,-2.95,3.96,8.46
1738244964.6180518,56582,0,0,,0.0,-0.04,0.26,0.85,0.47,0.09,0.05,0.01,-3.57,3.2,8.44,0.0,0.0,0.0,-2.96,3.97,8.45
1738244964.6363282,56583,0,0,,0.0,-0.04,0.26,0.85,0.46,0.1,0.06,0.02,-3.48,2.95,8.7,0.0,0.0,0.0,-2.97,3.99,8.44
1738244964.654044,56584,0,0,,0.0,-0.04,0.26,0.84,0.46,0.11,0.07,0.01,-4.07,2.94,8.45,0.0,0.0,0.0,-2.97,4.0,8.44
1738244964.6682131,56585,0,0,,0.0,-0.04,0.26,0.84,0.46,0.07,0.01,0.02,-3.94,3.25,8.44,0.0,0.0,0.0,-2.98,4.02,8.43
1738244964.6866715,56586,0,0,,0.0,-0.04,0.26,0.84,0.46,0.07,0.02,0.01,-4.14,3.41,8.47,0.0,0.0,0.0,-2.98,4.03,8.42
1738244964.7045124,56587,0,0,,0.0,-0.04,0.26,0.84,0.46,0.07,0.03,0.01,-5.11,2.26,8.36,0.0,0.0,0.0,-2.98,4.03,8.42
1738244964.718754,56588,0,0,,0.0,-0.04,0.26,0.84,0.46,0.08,-0.01,0.04,-4.82,3.0,8.39,0.0,0.0,0.0,-2.98,4.05,8.41
1738244964.7369254,56589,0,0,,0.0,-0.03,0.26,0.84,0.46,0.09,-0.03,0.05,-3.52,3.01,8.75,0.0,0.0,0.0,-2.97,4.07,8.41
1738244964.754632,56590,0,0,,0.0,-0.03,0.27,0.84,0.46,0.11,-0.02,0.04,-3.8,2.75,8.71,0.0,0.0,0.0,-2.97,4.08,8.4
1738244964.7695272,56591,0,0,,0.0,-0.03,0.27,0.84,0.46,0.09,-0.01,0.03,-4.59,3.03,7.94,0.0,0.0,0.0,-2.97,4.1,8.39
1738244964.7880867,56592,0,0,,0.0,-0.03,0.27,0.84,0.46,0.07,-0.03,0.03,-3.99,2.91,8.51,0.0,0.0,0.0,-2.96,4.11,8.39
1738244964.8045208,56593,0,0,,0.0,-0.03,0.27,0.84,0.46,0.06,-0.07,0.03,-2.7,3.37,8.76,0.0,0.0,0.0,-2.95,4.12,8.39
1738244964.8198993,56594,0,0,,0.0,-0.03,0.27,0.84,0.46,0.05,-0.03,0.01,-3.59,2.89,8.57,0.0,0.0,0.0,-2.95,4.12,8.39
1738244964.8381176,56595,0,0,,0.0,-0.03,0.27,0.84,0.46,0.05,-0.02,-0.01,-4.76,2.81,7.89,0.0,0.0,0.0,-2.94,4.13,8.39
1738244964.854959,56596,0,0,,0.0,-0.03,0.27,0.84,0.46,0.04,-0.05,-0.02,-4.67,3.13,8.26,0.0,0.0,0.0,-2.93,4.13,8.39
1738244964.869914,56597,0,0,,0.0,-0.03,0.27,0.84,0.46,0.05,-0.08,-0.01,-3.69,3.58,8.3,0.0,0.0,0.0,-2.92,4.14,8.39
1738244964.8882172,56598,0,0,,0.0,-0.03,0.27,0.84,0.46,0.04,-0.08,-0.0,-5.0,2.51,8.24,0.0,0.0,0.0,-2.91,4.15,8.39
1738244964.9047325,56599,0,0,,0.0,-0.03,0.27,0.84,0.46,0.06,-0.06,-0.0,-4.75,2.66,8.0,0.0,0.0,0.0,-2.9,4.16,8.38
1738244964.9198713,56600,0,0,,0.0,-0.03,0.27,0.84,0.46,0.08,-0.07,0.02,-3.4,3.13,8.62,0.0,0.0,0.0,-2.9,4.16,8.38
1738244964.9381986,56601,0,0,,0.0,-0.03,0.27,0.84,0.46,0.1,-0.08,0.03,-3.9,3.59,8.19,0.0,0.0,0.0,-2.89,4.18,8.38
1738244964.9547524,56602,0,0,,0.0,-0.03,0.27,0.84,0.46,0.09,-0.01,0.01,-4.55,2.73,8.24,0.0,0.0,0.0,-2.89,4.19,8.37
1738244964.9704177,56603,0,0,,0.0,-0.03,0.27,0.84,0.46,0.08,-0.0,-0.01,-3.82,3.18,8.26,0.0,0.0,0.0,-2.89,4.2,8.37
1738244964.9885225,56604,0,0,,0.0,-0.03,0.27,0.84,0.46,0.07,-0.01,-0.02,-4.67,3.16,8.38,0.0,0.0,0.0,-2.89,4.21,8.36
1738244965.0058188,56605,0,0,,0.0,-0.03,0.27,0.84,0.47,0.06,-0.01,-0.03,-3.83,3.73,8.37,0.0,0.0,0.0,-2.89,4.22,8.36
1738244965.0205786,56606,0,0,,0.0,-0.03,0.27,0.84,0.47,0.05,0.01,-0.05,-5.1,2.5,8.25,0.0,0.0,0.0,-2.89,4.22,8.36
1738244965.0392559,56607,0,0,,0.0,-0.03,0.27,0.84,0.47,0.06,-0.03,-0.02,-5.04,2.91,8.25,0.0,0.0,0.0,-2.89,4.23,8.35
1738244965.055912,56608,0,0,,0.0,-0.03,0.27,0.84,0.47,0.06,-0.05,-0.0,-3.53,3.32,8.68,0.0,0.0,0.0,-2.89,4.24,8.35
1738244965.0705116,56609,0,0,,0.0,-0.03,0.27,0.84,0.47,0.05,-0.02,-0.02,-3.5,3.36,8.64,0.0,0.0,0.0,-2.89,4.24,8.35
1738244965.0894432,56610,0,0,,0.0,-0.03,0.27,0.84,0.47,0.04,0.0,-0.03,-4.83,2.76,7.94,0.0,0.0,0.0,-2.89,4.25,8.35
1738244965.106156,56611,0,0,,0.0,-0.02,0.27,0.84,0.47,0.04,-0.01,-0.02,-4.69,2.94,8.41,0.0,0.0,0.0,-2.89,4.25,8.34
1738244965.1212559,56612,0,0,,0.0,-0.02,0.27,0.84,0.47,0.06,-0.03,0.01,-2.6,3.61,8.57,0.0,0.0,0.0,-2.88,4.26,8.34
1738244965.1396914,56613,0,0,,0.0,-0.02,0.27,0.84,0.47,0.06,-0.01,-0.0,-5.09,2.62,8.16,0.0,0.0,0.0,-2.88,4.27,8.34
1738244965.156294,56614,0,0,,0.0,-0.02,0.27,0.84,0.47,0.06,0.0,-0.02,-4.72,2.82,8.0,0.0,0.0,0.0,-2.88,4.28,8.33
1738244965.171324,56615,0,0,,0.0,-0.02,0.27,0.84,0.47,0.08,-0.0,-0.01,-4.74,2.94,8.34,0.0,0.0,0.0,-2.88,4.28,8.33
1738244965.1895645,56616,0,0,,0.0,-0.02,0.27,0.84,0.47,0.09,-0.03,0.02,-3.66,3.64,8.35,0.0,0.0,0.0,-2.88,4.3,8.32
1738244965.2062252,56617,0,0,,0.0,-0.02,0.27,0.84,0.47,0.09,-0.01,0.0,-3.7,3.27,8.55,0.0,0.0,0.0,-2.88,4.31,8.31
1738244965.2217445,56618,0,0,,0.0,-0.02,0.27,0.84,0.47,0.1,0.01,-0.01,-3.84,3.13,8.46,0.0,0.0,0.0,-2.88,4.32,8.31
1738244965.2399347,56619,0,0,,0.0,-0.02,0.28,0.84,0.47,0.1,0.02,-0.0,-3.49,3.48,8.45,0.0,0.0,0.0,-2.88,4.34,8.3
1738244965.2564847,56620,0,0,,0.0,-0.02,0.28,0.84,0.47,0.1,-0.02,0.01,-2.48,3.86,8.56,0.0,0.0,0.0,-2.88,4.35,8.29
1738244965.271319,56621,0,0,,0.0,-0.02,0.28,0.84,0.47,0.1,0.01,-0.01,-4.38,2.97,8.26,0.0,0.0,0.0,-2.88,4.36,8.29
1738244965.2900712,56622,0,0,,0.0,-0.02,0.28,0.84,0.47,0.09,0.03,-0.04,-3.55,3.42,8.52,0.0,0.0,0.0,-2.89,4.37,8.28
1738244965.306573,56623,0,0,,0.0,-0.02,0.28,0.84,0.47,0.1,0.05,-0.04,-3.49,3.5,8.45,0.0,0.0,0.0,-2.9,4.39,8.27
1738244965.321387,56624,0,0,,0.0,-0.02,0.28,0.84,0.47,0.1,0.08,-0.04,-3.93,3.53,8.22,0.0,0.0,0.0,-2.9,4.4,8.26
1738244965.340191,56625,0,0,,0.0,-0.02,0.28,0.84,0.47,0.1,0.1,-0.05,-4.4,3.18,7.73,0.0,0.0,0.0,-2.93,4.41,8.24
1738244965.3566442,56626,0,0,,0.0,-0.02,0.28,0.84,0.47,0.09,0.25,-0.07,-4.57,4.04,9.67,0.0,0.0,0.0,-2.98,4.42,8.22
1738244965.3719022,56627,0,0,,0.0,-0.03,0.28,0.84,0.47,0.1,0.32,-0.11,-1.74,3.85,8.3,0.0,0.0,0.0,-3.01,4.42,8.21
1738244965.391129,56628,0,0,,0.0,-0.03,0.29,0.84,0.47,0.11,0.48,-0.2,-4.38,3.45,8.64,0.0,0.0,0.0,-3.11,4.43,8.17
1738244965.4071944,56629,0,0,,0.0,-0.04,0.29,0.83,0.47,0.15,0.66,-0.26,-3.27,2.6,8.11,0.0,0.0,0.0,-3.25,4.44,8.11
1738244965.4221034,56630,0,0,,0.0,-0.04,0.29,0.83,0.47,0.21,0.92,-0.26,-4.08,2.94,8.36,0.0,0.0,0.0,-3.33,4.45,8.07
1738244965.4407072,56631,0,0,,0.0,-0.05,0.3,0.83,0.47,0.23,1.06,-0.24,-2.72,3.62,9.1,0.0,0.0,0.0,-3.53,4.47,7.97
1738244965.4569962,56632,0,0,,0.0,-0.06,0.31,0.83,0.46,0.28,1.35,-0.27,-4.11,3.34,8.2,0.0,0.0,0.0,-3.77,4.5,7.85
1738244965.4722962,56633,0,0,,0.0,-0.07,0.32,0.83,0.46,0.31,1.65,-0.35,-5.83,3.16,7.56,0.0,0.0,0.0,-3.91,4.51,7.77
1738244965.490645,56634,0,0,,0.0,-0.08,0.33,0.82,0.46,0.33,1.75,-0.37,-4.82,3.75,7.67,0.0,0.0,0.0,-4.22,4.52,7.6
1738244965.5071611,56635,0,0,,0.0,-0.1,0.34,0.82,0.46,0.31,1.96,-0.5,-3.84,4.19,8.49,0.0,0.0,0.0,-4.56,4.52,7.4
1738244965.521835,56636,0,0,,0.0,-0.1,0.34,0.81,0.46,0.23,2.17,-0.67,-5.31,3.78,7.6,0.0,0.0,0.0,-4.74,4.51,7.3
1738244965.5409098,56637,0,0,,0.0,-0.13,0.35,0.81,0.46,0.15,2.28,-0.76,-5.98,3.53,7.44,0.0,0.0,0.0,-5.13,4.45,7.06
1738244965.5569155,56638,0,0,,0.0,-0.15,0.36,0.8,0.46,0.05,2.48,-0.96,-5.56,3.68,6.89,0.0,0.0,0.0,-5.56,4.34,6.8
1738244965.5725238,56639,0,0,,0.0,-0.16,0.37,0.79,0.46,-0.07,2.64,-1.16,-5.09,4.44,6.85,0.0,0.0,0.0,-5.78,4.28,6.65
1738244965.5909617,56640,0,0,,0.0,-0.19,0.38,0.78,0.46,-0.17,2.81,-1.27,-6.45,3.63,6.78,0.0,0.0,0.0,-6.25,4.09,6.33
1738244965.6078498,56641,0,0,,0.0,-0.22,0.39,0.77,0.45,-0.28,3.22,-1.54,-7.34,2.94,6.72,0.0,0.0,0.0,-6.77,3.87,5.93
1738244965.6219895,56642,0,0,,0.0,-0.24,0.39,0.76,0.45,0.17,3.62,-1.75,-9.27,2.6,7.88,0.0,0.0,0.0,-7.04,3.76,5.68
1738244965.6411417,56643,0,0,,0.0,-0.27,0.41,0.75,0.45,0.37,3.81,-1.87,-9.59,6.28,9.79,0.0,0.0,0.0,-7.57,3.51,5.13
1738244965.6577985,56644,0,0,,0.0,-0.31,0.41,0.73,0.45,-0.3,3.73,-2.23,-9.59,5.66,9.33,0.0,0.0,0.0,-8.08,3.12,4.58
1738244965.6722248,56645,0,0,,0.0,-0.33,0.42,0.71,0.46,-0.3,3.97,-2.45,-10.89,4.88,9.67,0.0,0.0,0.0,-8.32,2.92,4.28
1738244965.6915374,56646,0,0,,0.0,-0.37,0.42,0.69,0.46,-0.18,4.04,-2.64,-8.96,5.32,13.19,0.0,0.0,0.0,-8.76,2.46,3.63
1738244965.708005,56647,0,0,,0.0,-0.39,0.43,0.67,0.46,-0.07,3.24,-2.61,-7.8,4.82,13.44,0.0,0.0,0.0,-9.05,2.04,3.16
1738244965.7225518,56648,0,0,,0.0,-0.4,0.43,0.66,0.47,0.31,1.02,-1.88,-4.65,9.34,11.22,0.0,0.0,0.0,-9.12,1.88,3.06
1738244965.7412379,56649,0,0,,0.0,-0.41,0.42,0.65,0.47,0.01,0.55,-1.61,-5.14,5.75,7.91,0.0,0.0,0.0,-9.2,1.59,2.98
1738244965.7578921,56650,0,0,,0.0,-0.42,0.42,0.65,0.48,-0.22,0.27,-1.2,-4.25,5.23,7.66,0.0,0.0,0.0,-9.24,1.39,2.95
1738244965.7727349,56651,0,0,,0.0,-0.42,0.42,0.65,0.48,-0.15,-0.15,-0.71,-4.03,5.21,6.63,0.0,0.0,0.0,-9.24,1.33,2.97
1738244965.7917552,56652,0,0,,0.0,-0.42,0.41,0.65,0.49,-0.13,-0.38,-0.53,-3.92,4.69,6.08,0.0,0.0,0.0,-9.23,1.24,3.06
1738244965.8077497,56653,0,0,,0.0,-0.41,0.41,0.65,0.49,0.03,-0.88,-0.09,-3.94,4.44,5.66,0.0,0.0,0.0,-9.16,1.26,3.24
1738244965.8231676,56654,0,0,,0.0,-0.41,0.4,0.66,0.49,0.17,-1.35,0.44,-4.31,4.28,5.51,0.0,0.0,0.0,-9.12,1.3,3.36
1738244965.842098,56655,0,0,,0.0,-0.39,0.4,0.67,0.49,0.19,-1.57,0.7,-4.84,2.91,5.23,0.0,0.0,0.0,-8.98,1.46,3.64
1738244965.8585184,56656,0,0,,0.0,-0.37,0.4,0.68,0.49,0.23,-1.97,1.08,-5.14,2.34,5.42,0.0,0.0,0.0,-8.79,1.66,3.99
1738244965.8735383,56657,0,0,,0.0,-0.36,0.39,0.68,0.5,0.31,-2.4,1.17,-5.9,2.09,5.87,0.0,0.0,0.0,-8.68,1.78,4.19
1738244965.892082,56658,0,0,,0.0,-0.34,0.39,0.7,0.5,0.34,-2.64,1.23,-6.41,2.34,5.7,0.0,0.0,0.0,-8.4,2.02,4.63
1738244965.909198,56659,0,0,,0.0,-0.31,0.38,0.71,0.5,0.36,-3.01,1.41,-6.33,2.0,5.43,0.0,0.0,0.0,-8.05,2.28,5.1
1738244965.9233944,56660,0,0,,0.0,-0.29,0.38,0.72,0.5,0.5,-3.16,1.52,-7.08,1.69,5.88,0.0,0.0,0.0,-7.85,2.43,5.33
1738244965.9423108,56661,0,0,,0.0,-0.26,0.37,0.73,0.51,0.59,-3.22,1.56,-7.84,1.72,6.65,0.0,0.0,0.0,-7.42,2.72,5.79
1738244965.9583683,56662,0,0,,0.0,-0.23,0.36,0.75,0.51,0.64,-3.46,1.56,-8.85,2.92,6.8,0.0,0.0,0.0,-6.92,3.02,6.24
1738244965.9739947,56663,0,0,,0.0,-0.21,0.36,0.76,0.51,0.52,-3.51,1.8,-8.88,3.46,5.65,0.0,0.0,0.0,-6.65,3.17,6.46
1738244965.9918003,56664,0,0,,0.0,-0.18,0.35,0.77,0.5,0.5,-3.36,1.99,-9.67,3.52,5.19,0.0,0.0,0.0,-6.1,3.49,6.83
1738244966.0086696,56665,0,0,,0.0,-0.15,0.34,0.79,0.5,0.47,-2.93,2.36,-9.87,3.5,5.13,0.0,0.0,0.0,-5.55,3.82,7.11
1738244966.02353,56666,0,0,,0.0,-0.13,0.34,0.79,0.49,0.36,-2.46,2.6,-10.2,3.24,5.46,0.0,0.0,0.0,-5.28,3.98,7.23
1738244966.042009,56667,0,0,,0.0,-0.1,0.33,0.81,0.48,0.35,-2.26,2.72,-11.79,2.89,7.06,0.0,0.0,0.0,-4.75,4.3,7.42
1738244966.058547,56668,0,0,,0.0,-0.08,0.33,0.82,0.46,0.3,-2.1,2.81,-11.98,2.05,7.02,0.0,0.0,0.0,-4.21,4.58,7.57
1738244966.0737123,56669,0,0,,0.0,-0.06,0.33,0.83,0.46,0.27,-2.04,2.56,-12.26,1.04,7.48,0.0,0.0,0.0,-3.94,4.7,7.64
1738244966.0921469,56670,0,0,,0.0,-0.04,0.32,0.84,0.44,0.23,-2.04,2.38,-12.1,0.76,7.32,0.0,0.0,0.0,-3.42,4.9,7.77
1738244966.1089041,56671,0,0,,0.0,-0.02,0.31,0.84,0.43,0.12,-2.01,2.02,-11.64,0.43,6.86,0.0,0.0,0.0,-2.94,5.03,7.88
1738244966.124128,56672,0,0,,0.0,-0.01,0.31,0.85,0.43,0.05,-1.79,1.58,-11.09,-0.51,5.93,0.0,0.0,0.0,-2.73,5.08,7.92
1738244966.1420128,56673,0,0,,0.0,0.01,0.3,0.85,0.42,0.05,-1.63,1.33,-11.23,-0.8,5.47,0.0,0.0,0.0,-2.37,5.14,8.0
1738244966.1589541,56674,0,0,,0.0,0.02,0.3,0.86,0.42,0.05,-1.29,0.81,-11.46,-0.56,5.05,0.0,0.0,0.0,-2.11,5.18,8.04
1738244966.1737988,56675,0,0,,0.0,0.03,0.3,0.86,0.42,-0.02,-0.88,0.39,-10.88,-0.75,3.71,0.0,0.0,0.0,-2.02,5.19,8.06
1738244966.1924787,56676,0,0,,0.0,0.03,0.29,0.86,0.42,-0.07,-0.57,0.19,-10.37,-0.22,2.65,0.0,0.0,0.0,-1.95,5.17,8.09
1738244966.2087905,56677,0,0,,0.0,0.02,0.29,0.86,0.42,-0.25,0.1,-0.15,-10.19,-0.18,2.46,0.0,0.0,0.0,-2.01,5.12,8.11
