Time,header.seq,header.stamp.secs,header.stamp.nsecs,header.frame_id,time_stamp,quat_x,quat_y,quat_z,quat_w,gyro_x,gyro_y,gyro_z,accel_x,accel_y,accel_z,euler_x,euler_y,euler_z,gravity_x,gravity_y,gravity_z
1738244948.7206743,55630,0,0,,0.0,-0.83,0.39,0.29,0.28,0.12,1.13,-0.26,-7.44,-1.15,-4.82,0.0,0.0,0.0,-6.89,-2.3,-6.58
1738244948.738187,55631,0,0,,0.0,-0.83,0.39,0.28,0.28,0.25,0.9,-0.14,-7.03,-1.64,-4.77,0.0,0.0,0.0,-6.78,-2.35,-6.67
1738244948.7547553,55632,0,0,,0.0,-0.83,0.39,0.28,0.28,0.46,0.4,0.02,-6.64,-1.73,-4.56,0.0,0.0,0.0,-6.76,-2.38,-6.68
1738244948.7709763,55633,0,0,,0.0,-0.83,0.4,0.28,0.29,0.54,-0.12,0.17,-6.05,-1.31,-4.11,0.0,0.0,0.0,-6.76,-2.43,-6.66
1738244948.7877262,55634,0,0,,0.0,-0.82,0.4,0.28,0.29,0.51,-0.37,0.24,-5.89,-1.01,-3.96,0.0,0.0,0.0,-6.84,-2.46,-6.57
1738244948.8051455,55635,0,0,,0.0,-0.82,0.4,0.29,0.29,0.28,-0.88,0.43,-5.31,-0.93,-3.73,0.0,0.0,0.0,-6.91,-2.44,-6.51
1738244948.821397,55636,0,0,,0.0,-0.81,0.4,0.3,0.3,0.08,-1.35,0.61,-5.02,-1.12,-3.65,0.0,0.0,0.0,-7.09,-2.38,-6.33
1738244948.8381035,55637,0,0,,0.0,-0.81,0.4,0.31,0.3,-0.02,-1.56,0.68,-4.98,-1.84,-3.61,0.0,0.0,0.0,-7.32,-2.29,-6.1
1738244948.855418,55638,0,0,,0.0,-0.8,0.4,0.32,0.3,-0.14,-1.97,0.74,-4.94,-2.13,-3.64,0.0,0.0,0.0,-7.45,-2.23,-5.97
1738244948.8711839,55639,0,0,,0.0,-0.79,0.4,0.34,0.31,-0.22,-2.34,0.88,-5.3,-2.43,-3.98,0.0,0.0,0.0,-7.73,-2.08,-5.64
1738244948.8880787,55640,0,0,,0.0,-0.78,0.4,0.37,0.31,-0.28,-2.52,0.97,-5.59,-2.48,-4.31,0.0,0.0,0.0,-8.05,-1.9,-5.26
1738244948.905563,55641,0,0,,0.0,-0.77,0.4,0.38,0.31,-0.33,-2.82,1.11,-5.8,-2.54,-4.49,0.0,0.0,0.0,-8.21,-1.79,-5.04
1738244948.921276,55642,0,0,,0.0,-0.76,0.4,0.41,0.32,-0.26,-3.04,1.21,-6.27,-2.61,-5.22,0.0,0.0,0.0,-8.53,-1.57,-4.57
1738244948.9380462,55643,0,0,,0.0,-0.74,0.4,0.43,0.32,-0.23,-3.1,1.24,-6.92,-2.24,-5.5,0.0,0.0,0.0,-8.82,-1.34,-4.05
1738244948.9555054,55644,0,0,,0.0,-0.73,0.39,0.45,0.33,-0.38,-3.21,1.27,-7.03,-2.07,-5.69,0.0,0.0,0.0,-8.96,-1.22,-3.78
1738244948.971603,55645,0,0,,0.0,-0.72,0.39,0.48,0.33,-0.71,-3.29,1.27,-7.11,-1.86,-5.94,0.0,0.0,0.0,-9.21,-0.95,-3.21
1738244948.9879959,55646,0,0,,0.0,-0.7,0.38,0.51,0.33,-0.87,-3.32,1.27,-7.38,-1.85,-5.98,0.0,0.0,0.0,-9.42,-0.67,-2.62
1738244949.005602,55647,0,0,,0.0,-0.68,0.38,0.54,0.33,-1.08,-3.37,1.25,-7.64,-2.05,-5.95,0.0,0.0,0.0,-9.51,-0.53,-2.32
1738244949.0216033,55648,0,0,,0.0,-0.67,0.37,0.55,0.33,-1.0,-3.44,1.26,-8.67,-2.39,-6.34,0.0,0.0,0.0,-9.65,-0.26,-1.7
1738244949.0379522,55649,0,0,,0.0,-0.65,0.36,0.58,0.33,-0.9,-3.45,1.25,-9.71,-2.67,-6.05,0.0,0.0,0.0,-9.74,0.0,-1.05
1738244949.0552163,55650,0,0,,0.0,-0.63,0.36,0.61,0.33,-0.62,-3.45,1.23,-10.74,-2.42,-5.92,0.0,0.0,0.0,-9.77,0.11,-0.72
1738244949.0716727,55651,0,0,,0.0,-0.61,0.35,0.62,0.33,-0.36,-3.38,1.23,-11.18,-2.25,-6.33,0.0,0.0,0.0,-9.8,0.35,-0.07
1738244949.0886545,55652,0,0,,0.0,-0.59,0.35,0.65,0.33,-0.27,-3.29,1.22,-11.39,-1.71,-6.36,0.0,0.0,0.0,-9.77,0.58,0.53
1738244949.1060774,55653,0,0,,0.0,-0.57,0.34,0.67,0.33,-0.3,-3.03,1.17,-11.28,-1.57,-6.03,0.0,0.0,0.0,-9.74,0.68,0.82
1738244949.1222384,55654,0,0,,0.0,-0.56,0.34,0.68,0.33,-0.45,-2.66,1.06,-10.86,-1.37,-6.03,0.0,0.0,0.0,-9.67,0.88,1.34
1738244949.138802,55655,0,0,,0.0,-0.54,0.34,0.69,0.33,-0.52,-2.45,0.99,-10.64,-1.15,-5.76,0.0,0.0,0.0,-9.58,1.04,1.79
1738244949.1562455,55656,0,0,,0.0,-0.53,0.33,0.71,0.33,-0.65,-1.99,0.82,-10.63,-1.24,-5.08,0.0,0.0,0.0,-9.53,1.1,1.98
1738244949.17325,55657,0,0,,0.0,-0.53,0.33,0.71,0.33,-0.71,-1.54,0.64,-10.36,-1.26,-4.52,0.0,0.0,0.0,-9.45,1.2,2.3
1738244949.1889453,55658,0,0,,0.0,-0.52,0.32,0.72,0.32,-0.7,-1.34,0.55,-9.73,-1.69,-3.87,0.0,0.0,0.0,-9.38,1.26,2.54
1738244949.2062697,55659,0,0,,0.0,-0.51,0.31,0.73,0.32,-0.59,-0.97,0.39,-9.81,-1.53,-3.57,0.0,0.0,0.0,-9.35,1.28,2.64
1738244949.2228243,55660,0,0,,0.0,-0.51,0.31,0.73,0.32,-0.55,-0.64,0.25,-9.33,-1.15,-4.32,0.0,0.0,0.0,-9.31,1.3,2.78
1738244949.2391615,55661,0,0,,0.0,-0.51,0.31,0.74,0.32,-0.55,-0.46,0.18,-9.23,-0.86,-4.57,0.0,0.0,0.0,-9.28,1.3,2.86
1738244949.2565758,55662,0,0,,0.0,-0.51,0.3,0.74,0.31,-0.51,-0.05,0.07,-9.43,-0.59,-4.03,0.0,0.0,0.0,-9.28,1.29,2.87
1738244949.2735345,55663,0,0,,0.0,-0.51,0.3,0.74,0.31,-0.54,0.29,0.0,-10.33,0.16,-0.71,0.0,0.0,0.0,-9.29,1.27,2.85
1738244949.2891726,55664,0,0,,0.0,-0.52,0.3,0.74,0.31,-0.5,0.4,-0.0,-16.6,5.98,11.76,0.0,0.0,0.0,-9.31,1.25,2.78
1738244949.3059337,55665,0,0,,0.0,-0.51,0.31,0.74,0.31,0.32,0.23,0.18,-13.5,6.34,6.29,0.0,0.0,0.0,-9.32,1.28,2.75
1738244949.3230555,55666,0,0,,0.0,-0.51,0.3,0.74,0.31,-0.52,-0.2,0.33,-8.88,-1.79,-1.96,0.0,0.0,0.0,-9.3,1.33,2.8
1738244949.3387935,55667,0,0,,0.0,-0.52,0.3,0.74,0.3,-0.45,0.05,0.19,-11.07,-1.54,2.53,0.0,0.0,0.0,-9.3,1.34,2.77
1738244949.356044,55668,0,0,,0.0,-0.52,0.31,0.74,0.3,0.1,0.47,0.03,-10.94,-0.16,3.03,0.0,0.0,0.0,-9.32,1.34,2.73
1738244949.3731759,55669,0,0,,0.0,-0.52,0.31,0.74,0.3,-0.0,0.49,0.15,-9.06,0.34,1.19,0.0,0.0,0.0,-9.34,1.37,2.63
1738244949.3889802,55670,0,0,,0.0,-0.52,0.31,0.74,0.3,-0.09,0.5,0.12,-9.34,1.1,1.14,0.0,0.0,0.0,-9.36,1.39,2.55
1738244949.40604,55671,0,0,,0.0,-0.53,0.31,0.73,0.29,-0.06,0.52,0.11,-9.55,1.52,0.95,0.0,0.0,0.0,-9.37,1.39,2.5
1738244949.4229898,55672,0,0,,0.0,-0.53,0.31,0.73,0.29,0.06,0.56,0.13,-9.48,1.68,1.01,0.0,0.0,0.0,-9.4,1.42,2.4
1738244949.4389722,55673,0,0,,0.0,-0.53,0.32,0.73,0.29,0.21,0.5,0.16,-9.32,1.03,0.03,0.0,0.0,0.0,-9.41,1.46,2.3
1738244949.4565334,55674,0,0,,0.0,-0.53,0.32,0.73,0.29,0.53,0.43,0.18,-9.76,0.64,0.15,0.0,0.0,0.0,-9.42,1.49,2.26
1738244949.473463,55675,0,0,,0.0,-0.53,0.33,0.72,0.29,0.77,0.46,0.16,-10.25,1.24,1.39,0.0,0.0,0.0,-9.43,1.55,2.15
1738244949.48881,55676,0,0,,0.0,-0.53,0.33,0.72,0.29,0.75,0.45,0.16,-9.68,1.13,0.95,0.0,0.0,0.0,-9.45,1.61,2.05
1738244949.506717,55677,0,0,,0.0,-0.53,0.34,0.72,0.29,0.48,0.43,0.15,-9.37,1.11,-0.16,0.0,0.0,0.0,-9.45,1.63,2.0
1738244949.5238879,55678,0,0,,0.0,-0.54,0.34,0.71,0.29,0.18,0.54,0.12,-9.73,1.3,0.44,0.0,0.0,0.0,-9.47,1.67,1.9
1738244949.5395463,55679,0,0,,0.0,-0.54,0.34,0.71,0.29,0.09,0.56,0.12,-9.47,1.48,0.65,0.0,0.0,0.0,-9.48,1.69,1.8
1738244949.556897,55680,0,0,,0.0,-0.54,0.34,0.71,0.29,0.01,0.53,0.12,-9.37,1.53,0.32,0.0,0.0,0.0,-9.49,1.7,1.75
1738244949.5736396,55681,0,0,,0.0,-0.54,0.35,0.71,0.29,-0.05,0.49,0.17,-9.62,1.56,-0.33,0.0,0.0,0.0,-9.5,1.73,1.66
1738244949.5896018,55682,0,0,,0.0,-0.55,0.35,0.71,0.28,-0.1,0.52,0.14,-9.78,1.57,-0.4,0.0,0.0,0.0,-9.51,1.75,1.57
1738244949.607425,55683,0,0,,0.0,-0.55,0.35,0.7,0.28,-0.14,0.52,0.11,-10.25,1.34,0.83,0.0,0.0,0.0,-9.53,1.77,1.48
1738244949.6246064,55684,0,0,,0.0,-0.55,0.35,0.7,0.28,-0.1,0.45,0.09,-9.76,1.24,0.09,0.0,0.0,0.0,-9.53,1.78,1.44
1738244949.6399913,55685,0,0,,0.0,-0.56,0.35,0.7,0.28,-0.09,0.49,0.03,-9.79,1.47,-0.54,0.0,0.0,0.0,-9.54,1.78,1.35
1738244949.6573024,55686,0,0,,0.0,-0.56,0.35,0.7,0.28,-0.05,0.52,-0.0,-9.76,1.44,-0.76,0.0,0.0,0.0,-9.55,1.78,1.26
1738244949.6740646,55687,0,0,,0.0,-0.56,0.35,0.7,0.27,-0.02,0.5,-0.04,-10.0,1.54,0.19,0.0,0.0,0.0,-9.56,1.77,1.21
1738244949.6898966,55688,0,0,,0.0,-0.56,0.35,0.7,0.27,0.05,0.45,-0.07,-9.27,1.39,-1.24,0.0,0.0,0.0,-9.57,1.76,1.13
1738244949.707689,55689,0,0,,0.0,-0.57,0.35,0.69,0.27,0.08,0.48,-0.09,-9.49,0.96,-0.98,0.0,0.0,0.0,-9.59,1.75,1.03
1738244949.724782,55690,0,0,,0.0,-0.57,0.35,0.69,0.27,0.15,0.53,-0.14,-10.01,1.13,0.0,0.0,0.0,0.0,-9.6,1.73,0.98
1738244949.740247,55691,0,0,,0.0,-0.57,0.36,0.69,0.27,0.2,0.47,-0.13,-9.54,1.28,-0.56,0.0,0.0,0.0,-9.61,1.71,0.88
1738244949.7573726,55692,0,0,,0.0,-0.58,0.36,0.68,0.27,0.18,0.45,-0.13,-9.26,1.19,-1.57,0.0,0.0,0.0,-9.62,1.7,0.84
1738244949.7746053,55693,0,0,,0.0,-0.58,0.36,0.68,0.27,0.19,0.47,-0.15,-9.8,0.82,-1.07,0.0,0.0,0.0,-9.63,1.68,0.75
1738244949.7897778,55694,0,0,,0.0,-0.58,0.36,0.68,0.28,0.19,0.45,-0.14,-10.17,1.13,-0.17,0.0,0.0,0.0,-9.64,1.65,0.65
1738244949.8074553,55695,0,0,,0.0,-0.58,0.36,0.67,0.28,0.23,0.39,-0.11,-9.81,1.09,-0.82,0.0,0.0,0.0,-9.65,1.64,0.58
1738244949.8244822,55696,0,0,,0.0,-0.58,0.36,0.67,0.28,0.17,0.34,-0.1,-9.21,0.73,-1.84,0.0,0.0,0.0,-9.65,1.63,0.54
1738244949.8400931,55697,0,0,,0.0,-0.59,0.36,0.67,0.28,0.08,0.42,-0.14,-9.5,1.46,-1.25,0.0,0.0,0.0,-9.66,1.61,0.47
1738244949.8575544,55698,0,0,,0.0,-0.59,0.36,0.67,0.28,0.0,0.44,-0.14,-10.08,1.54,0.3,0.0,0.0,0.0,-9.66,1.59,0.42
1738244949.8745298,55699,0,0,,0.0,-0.59,0.36,0.67,0.27,-0.09,0.4,-0.14,-9.68,1.16,-0.7,0.0,0.0,0.0,-9.67,1.57,0.35
1738244949.889863,55700,0,0,,0.0,-0.59,0.36,0.66,0.27,-0.17,0.41,-0.15,-9.68,0.96,-1.14,0.0,0.0,0.0,-9.68,1.54,0.28
1738244949.90801,55701,0,0,,0.0,-0.6,0.36,0.66,0.27,-0.18,0.44,-0.16,-9.69,1.46,-1.39,0.0,0.0,0.0,-9.68,1.52,0.24
1738244949.9249322,55702,0,0,,0.0,-0.6,0.36,0.66,0.27,-0.19,0.42,-0.13,-9.85,1.19,-1.01,0.0,0.0,0.0,-9.68,1.5,0.17
1738244949.9402025,55703,0,0,,0.0,-0.6,0.36,0.66,0.27,-0.1,0.36,-0.08,-9.64,0.56,-1.32,0.0,0.0,0.0,-9.69,1.48,0.1
1738244949.9579353,55704,0,0,,0.0,-0.61,0.36,0.66,0.27,-0.08,0.37,-0.03,-9.28,0.53,-2.38,0.0,0.0,0.0,-9.69,1.47,0.03
1738244949.9751377,55705,0,0,,0.0,-0.61,0.36,0.65,0.27,-0.05,0.42,-0.1,-9.68,0.88,-1.84,0.0,0.0,0.0,-9.69,1.46,0.0
1738244949.990356,55706,0,0,,0.0,-0.61,0.36,0.65,0.27,0.02,0.37,-0.15,-9.49,0.77,-1.67,0.0,0.0,0.0,-9.7,1.43,-0.07
1738244950.0081272,55707,0,0,,0.0,-0.61,0.36,0.65,0.27,0.04,0.34,-0.14,-9.66,0.84,-1.14,0.0,0.0,0.0,-9.7,1.41,-0.14
1738244950.025781,55708,0,0,,0.0,-0.61,0.36,0.65,0.27,0.1,0.37,-0.15,-9.35,0.58,-2.18,0.0,0.0,0.0,-9.7,1.39,-0.17
1738244950.0410132,55709,0,0,,0.0,-0.62,0.36,0.64,0.27,0.13,0.39,-0.17,-9.81,0.98,-1.18,0.0,0.0,0.0,-9.7,1.36,-0.25
1738244950.0580046,55710,0,0,,0.0,-0.62,0.36,0.64,0.27,0.16,0.37,-0.17,-9.71,1.27,-1.39,0.0,0.0,0.0,-9.7,1.33,-0.32
1738244950.0759296,55711,0,0,,0.0,-0.62,0.37,0.64,0.27,0.19,0.34,-0.16,-9.03,0.72,-2.75,0.0,0.0,0.0,-9.71,1.31,-0.36
1738244950.091076,55712,0,0,,0.0,-0.62,0.37,0.64,0.27,0.19,0.42,-0.19,-9.81,0.82,-1.7,0.0,0.0,0.0,-9.71,1.28,-0.44
1738244950.1085312,55713,0,0,,0.0,-0.63,0.37,0.63,0.27,0.18,0.41,-0.21,-9.83,0.66,-1.51,0.0,0.0,0.0,-9.71,1.24,-0.52
1738244950.126171,55714,0,0,,0.0,-0.63,0.37,0.63,0.27,0.21,0.38,-0.2,-9.36,0.67,-2.17,0.0,0.0,0.0,-9.71,1.22,-0.56
1738244950.1413045,55715,0,0,,0.0,-0.63,0.37,0.63,0.27,0.22,0.4,-0.21,-9.12,0.37,-3.08,0.0,0.0,0.0,-9.71,1.18,-0.64
1738244950.1582963,55716,0,0,,0.0,-0.63,0.37,0.62,0.27,0.2,0.45,-0.23,-9.84,0.61,-1.72,0.0,0.0,0.0,-9.71,1.13,-0.73
1738244950.1756144,55717,0,0,,0.0,-0.63,0.37,0.62,0.27,0.19,0.47,-0.27,-9.93,1.05,-1.2,0.0,0.0,0.0,-9.71,1.1,-0.78
1738244950.1910174,55718,0,0,,0.0,-0.64,0.37,0.62,0.27,0.2,0.47,-0.28,-9.38,0.83,-1.83,0.0,0.0,0.0,-9.71,1.05,-0.87
1738244950.2084546,55719,0,0,,0.0,-0.64,0.37,0.61,0.28,0.2,0.51,-0.3,-9.12,0.47,-2.98,0.0,0.0,0.0,-9.7,0.98,-0.97
1738244950.2264445,55720,0,0,,0.0,-0.64,0.37,0.61,0.28,0.19,0.63,-0.36,-9.74,0.62,-2.49,0.0,0.0,0.0,-9.7,0.95,-1.03
1738244950.2417233,55721,0,0,,0.0,-0.65,0.37,0.6,0.28,0.25,0.67,-0.39,-9.79,0.68,-1.86,0.0,0.0,0.0,-9.69,0.87,-1.16
1738244950.258686,55722,0,0,,0.0,-0.65,0.37,0.6,0.28,0.28,0.67,-0.4,-9.71,0.33,-1.91,0.0,0.0,0.0,-9.68,0.79,-1.3
1738244950.2762208,55723,0,0,,0.0,-0.66,0.37,0.59,0.28,0.3,0.76,-0.45,-11.07,1.2,-2.93,0.0,0.0,0.0,-9.68,0.74,-1.37
1738244950.2915432,55724,0,0,,0.0,-0.66,0.37,0.59,0.28,0.1,0.87,-0.55,-11.48,-0.15,-2.44,0.0,0.0,0.0,-9.66,0.64,-1.53
1738244950.3092856,55725,0,0,,0.0,-0.67,0.37,0.58,0.28,0.14,0.86,-0.55,-11.03,-0.54,-2.0,0.0,0.0,0.0,-9.64,0.53,-1.69
1738244950.3265676,55726,0,0,,0.0,-0.67,0.37,0.57,0.28,0.32,0.84,-0.57,-10.52,-0.7,-2.28,0.0,0.0,0.0,-9.63,0.47,-1.77
1738244950.3421123,55727,0,0,,0.0,-0.68,0.37,0.56,0.29,0.27,0.9,-0.64,-10.97,-0.46,-2.56,0.0,0.0,0.0,-9.6,0.34,-1.94
1738244950.3595045,55728,0,0,,0.0,-0.68,0.37,0.56,0.29,0.19,0.92,-0.69,-10.42,-0.75,-2.56,0.0,0.0,0.0,-9.57,0.21,-2.11
1738244950.3770711,55729,0,0,,0.0,-0.69,0.37,0.55,0.29,0.18,0.88,-0.72,-10.48,-0.5,-2.17,0.0,0.0,0.0,-9.55,0.13,-2.19
1738244950.3917916,55730,0,0,,0.0,-0.69,0.37,0.54,0.29,0.41,0.89,-0.72,-9.52,-0.3,-3.3,0.0,0.0,0.0,-9.51,0.0,-2.35
1738244950.4092677,55731,0,0,,0.0,-0.7,0.37,0.53,0.3,0.46,0.93,-0.75,-9.43,-0.42,-2.9,0.0,0.0,0.0,-9.47,-0.17,-2.53
1738244950.4268374,55732,0,0,,0.0,-0.7,0.37,0.53,0.3,0.53,1.03,-0.85,-9.4,-0.25,-2.48,0.0,0.0,0.0,-9.44,-0.26,-2.62
1738244950.4416368,55733,0,0,,0.0,-0.71,0.37,0.51,0.3,0.6,1.1,-0.89,-9.18,0.0,-2.51,0.0,0.0,0.0,-9.38,-0.45,-2.82
1738244950.4594953,55734,0,0,,0.0,-0.72,0.37,0.5,0.31,0.6,1.16,-0.89,-9.15,-0.4,-3.13,0.0,0.0,0.0,-9.3,-0.65,-3.03
1738244950.4769337,55735,0,0,,0.0,-0.72,0.37,0.49,0.31,0.57,1.34,-0.94,-9.42,-0.88,-2.53,0.0,0.0,0.0,-9.25,-0.75,-3.14
1738244950.4918082,55736,0,0,,0.0,-0.73,0.37,0.48,0.31,0.7,1.55,-0.92,-9.85,-0.71,-1.45,0.0,0.0,0.0,-9.14,-0.96,-3.4
1738244950.5095167,55737,0,0,,0.0,-0.74,0.38,0.46,0.32,0.81,1.65,-0.85,-10.04,-0.42,-2.71,0.0,0.0,0.0,-9.01,-1.16,-3.68
1738244950.5272577,55738,0,0,,0.0,-0.75,0.38,0.44,0.32,0.82,1.96,-0.75,-11.58,-0.21,-4.17,0.0,0.0,0.0,-8.93,-1.26,-3.84
1738244950.5425167,55739,0,0,,0.0,-0.75,0.38,0.43,0.32,0.63,2.4,-0.74,-14.36,0.62,-3.99,0.0,0.0,0.0,-8.73,-1.44,-4.22
1738244950.5604255,55740,0,0,,0.0,-0.77,0.39,0.41,0.31,0.44,2.56,-0.76,-11.88,0.56,-3.33,0.0,0.0,0.0,-8.48,-1.59,-4.64
1738244950.5782735,55741,0,0,,0.0,-0.78,0.39,0.39,0.3,-0.03,2.7,-0.86,-10.85,0.44,-3.12,0.0,0.0,0.0,-8.34,-1.66,-4.86
1738244950.5936406,55742,0,0,,0.0,-0.79,0.39,0.37,0.3,-0.17,2.65,-0.82,-12.05,-0.88,-4.12,0.0,0.0,0.0,-8.05,-1.78,-5.29
1738244950.6107218,55743,0,0,,0.0,-0.8,0.39,0.35,0.29,-0.08,2.43,-0.7,-11.29,-1.87,-5.89,0.0,0.0,0.0,-7.76,-1.88,-5.68
1738244950.6286545,55744,0,0,,0.0,-0.81,0.39,0.33,0.29,0.06,2.31,-0.62,-10.64,-3.6,-6.3,0.0,0.0,0.0,-7.62,-1.93,-5.85
1738244950.6438212,55745,0,0,,0.0,-0.81,0.39,0.32,0.29,0.91,2.03,-0.53,-10.16,-2.34,-5.47,0.0,0.0,0.0,-7.35,-2.09,-6.13
1738244950.6606505,55746,0,0,,0.0,-0.81,0.4,0.3,0.29,1.05,1.57,-0.4,-8.6,-0.51,-4.34,0.0,0.0,0.0,-7.13,-2.28,-6.32
1738244950.678019,55747,0,0,,0.0,-0.82,0.4,0.29,0.29,0.82,1.32,-0.32,-7.9,-0.23,-4.38,0.0,0.0,0.0,-7.04,-2.35,-6.39
1738244950.6938918,55748,0,0,,0.0,-0.82,0.4,0.29,0.29,0.18,0.83,-0.15,-6.63,-0.45,-4.55,0.0,0.0,0.0,-6.91,-2.42,-6.51
1738244950.711489,55749,0,0,,0.0,-0.82,0.4,0.28,0.29,-0.32,0.32,0.0,-5.85,-0.83,-4.26,0.0,0.0,0.0,-6.86,-2.4,-6.58
1738244950.727871,55750,0,0,,0.0,-0.82,0.4,0.29,0.29,-0.45,0.06,0.07,-5.58,-1.02,-4.34,0.0,0.0,0.0,-6.85,-2.37,-6.59
1738244950.744743,55751,0,0,,0.0,-0.82,0.4,0.29,0.28,-0.52,-0.47,0.2,-5.13,-1.82,-4.26,0.0,0.0,0.0,-6.9,-2.28,-6.57
1738244950.7608237,55752,0,0,,0.0,-0.82,0.4,0.3,0.28,-0.37,-1.0,0.3,-4.78,-1.56,-4.35,0.0,0.0,0.0,-7.03,-2.19,-6.47
1738244950.7784317,55753,0,0,,0.0,-0.81,0.4,0.31,0.29,-0.3,-1.24,0.34,-4.69,-1.46,-4.29,0.0,0.0,0.0,-7.11,-2.15,-6.39
1738244950.7941058,55754,0,0,,0.0,-0.81,0.4,0.32,0.29,-0.18,-1.69,0.47,-4.66,-1.02,-4.26,0.0,0.0,0.0,-7.32,-2.06,-6.18
1738244950.811224,55755,0,0,,0.0,-0.8,0.4,0.34,0.29,-0.18,-2.08,0.6,-4.91,-1.18,-4.33,0.0,0.0,0.0,-7.58,-1.96,-5.9
1738244950.8279588,55756,0,0,,0.0,-0.79,0.39,0.36,0.3,-0.21,-2.27,0.66,-5.01,-1.31,-4.33,0.0,0.0,0.0,-7.72,-1.9,-5.73
1738244950.8439112,55757,0,0,,0.0,-0.79,0.39,0.37,0.3,-0.2,-2.6,0.76,-5.39,-1.6,-4.66,0.0,0.0,0.0,-8.01,-1.76,-5.36
1738244950.861249,55758,0,0,,0.0,-0.77,0.39,0.39,0.31,-0.2,-2.88,0.87,-5.79,-1.71,-4.75,0.0,0.0,0.0,-8.32,-1.61,-4.92
1738244950.8780322,55759,0,0,,0.0,-0.76,0.39,0.42,0.31,-0.15,-3.01,0.93,-6.08,-1.89,-5.12,0.0,0.0,0.0,-8.47,-1.53,-4.68
1738244950.8934016,55760,0,0,,0.0,-0.75,0.39,0.43,0.32,0.0,-3.19,1.05,-6.39,-1.92,-5.41,0.0,0.0,0.0,-8.77,-1.35,-4.15
1738244950.9111278,55761,0,0,,0.0,-0.73,0.39,0.46,0.32,0.12,-3.3,1.15,-6.99,-2.31,-6.15,0.0,0.0,0.0,-9.05,-1.17,-3.58
1738244950.9280326,55762,0,0,,0.0,-0.71,0.38,0.49,0.33,0.13,-3.32,1.19,-7.34,-2.34,-6.26,0.0,0.0,0.0,-9.17,-1.06,-3.29
1738244950.943594,55763,0,0,,0.0,-0.7,0.38,0.5,0.34,0.0,-3.32,1.14,-7.56,-2.48,-6.44,0.0,0.0,0.0,-9.38,-0.86,-2.69
1738244950.960995,55764,0,0,,0.0,-0.68,0.38,0.53,0.34,-0.33,-3.3,1.19,-7.44,-2.36,-6.81,0.0,0.0,0.0,-9.55,-0.63,-2.09
1738244950.9782948,55765,0,0,,0.0,-0.66,0.37,0.55,0.34,-0.54,-3.26,1.17,-7.67,-2.51,-7.05,0.0,0.0,0.0,-9.62,-0.51,-1.79
1738244950.9931674,55766,0,0,,0.0,-0.65,0.37,0.57,0.34,-0.91,-3.15,1.05,-8.06,-2.9,-6.94,0.0,0.0,0.0,-9.72,-0.28,-1.2
1738244951.0107987,55767,0,0,,0.0,-0.64,0.36,0.59,0.34,-0.95,-3.03,0.91,-9.38,-3.25,-7.12,0.0,0.0,0.0,-9.78,-0.09,-0.62
1738244951.028434,55768,0,0,,0.0,-0.62,0.35,0.62,0.34,-0.87,-2.96,0.87,-9.71,-3.29,-7.08,0.0,0.0,0.0,-9.8,0.0,-0.34
1738244951.0429306,55769,0,0,,0.0,-0.61,0.34,0.63,0.34,-0.65,-2.78,0.88,-10.21,-2.71,-6.89,0.0,0.0,0.0,-9.8,0.16,0.19
1738244951.0610785,55770,0,0,,0.0,-0.59,0.34,0.65,0.34,-0.41,-2.52,0.91,-10.33,-2.29,-6.82,0.0,0.0,0.0,-9.77,0.33,0.68
1738244951.0781987,55771,0,0,,0.0,-0.58,0.33,0.66,0.34,-0.31,-2.36,0.93,-10.31,-1.93,-6.97,0.0,0.0,0.0,-9.75,0.41,0.9
1738244951.0938015,55772,0,0,,0.0,-0.57,0.33,0.67,0.34,-0.31,-1.96,0.98,-10.22,-1.53,-7.22,0.0,0.0,0.0,-9.7,0.59,1.3
1738244951.1109803,55773,0,0,,0.0,-0.56,0.33,0.68,0.34,-0.39,-1.49,0.93,-10.11,-1.92,-7.05,0.0,0.0,0.0,-9.64,0.76,1.6
1738244951.1286705,55774,0,0,,0.0,-0.55,0.33,0.69,0.33,-0.42,-1.24,0.86,-10.1,-2.19,-6.9,0.0,0.0,0.0,-9.61,0.83,1.72
1738244951.1434438,55775,0,0,,0.0,-0.54,0.33,0.7,0.33,-0.39,-0.78,0.66,-10.24,-2.79,-6.4,0.0,0.0,0.0,-9.57,0.95,1.89
1738244951.1613886,55776,0,0,,0.0,-0.54,0.33,0.7,0.33,-0.22,-0.33,0.4,-9.47,-3.4,-6.82,0.0,0.0,0.0,-9.54,1.02,1.98
1738244951.1787155,55777,0,0,,0.0,-0.54,0.33,0.7,0.33,-0.15,-0.09,0.25,-9.93,-4.44,-4.89,0.0,0.0,0.0,-9.54,1.04,1.99
1738244951.1933315,55778,0,0,,0.0,-0.54,0.33,0.7,0.33,0.32,0.14,0.07,-13.65,1.62,5.19,0.0,0.0,0.0,-9.54,1.07,1.97
1738244951.210597,55779,0,0,,0.0,-0.54,0.33,0.7,0.33,0.48,-0.24,0.3,-15.56,6.25,7.69,0.0,0.0,0.0,-9.53,1.12,1.98
1738244951.2285726,55780,0,0,,0.0,-0.54,0.33,0.71,0.32,0.06,-0.36,0.42,-10.06,2.37,-0.84,0.0,0.0,0.0,-9.52,1.16,2.01
1738244951.2435591,55781,0,0,,0.0,-0.54,0.33,0.71,0.32,-1.0,0.04,0.22,-8.53,-1.76,-1.92,0.0,0.0,0.0,-9.51,1.18,2.04
1738244951.2606916,55782,0,0,,0.0,-0.54,0.32,0.71,0.31,-0.93,0.23,0.13,-10.89,-2.99,1.23,0.0,0.0,0.0,-9.52,1.17,2.01
1738244951.2781594,55783,0,0,,0.0,-0.54,0.32,0.71,0.31,-0.26,0.31,0.12,-10.39,-2.16,1.2,0.0,0.0,0.0,-9.52,1.18,1.99
1738244951.2930646,55784,0,0,,0.0,-0.54,0.33,0.71,0.31,0.14,0.21,0.14,-8.74,1.41,0.23,0.0,0.0,0.0,-9.53,1.21,1.94
1738244951.310969,55785,0,0,,0.0,-0.54,0.33,0.71,0.31,0.14,0.23,0.18,-9.19,2.24,0.18,0.0,0.0,0.0,-9.54,1.24,1.89
1738244951.3282938,55786,0,0,,0.0,-0.54,0.33,0.71,0.31,0.12,0.34,0.18,-9.56,1.92,0.79,0.0,0.0,0.0,-9.54,1.26,1.86
1738244951.3437386,55787,0,0,,0.0,-0.55,0.33,0.7,0.31,0.18,0.29,0.18,-9.27,1.88,0.56,0.0,0.0,0.0,-9.55,1.3,1.79
1738244951.3609953,55788,0,0,,0.0,-0.55,0.34,0.7,0.31,0.24,0.26,0.22,-9.86,0.33,-0.69,0.0,0.0,0.0,-9.55,1.35,1.74
1738244951.3781679,55789,0,0,,0.0,-0.55,0.34,0.7,0.31,0.26,0.29,0.19,-10.27,0.2,-0.47,0.0,0.0,0.0,-9.55,1.37,1.71
1738244951.3931363,55790,0,0,,0.0,-0.55,0.34,0.7,0.31,0.28,0.3,0.16,-10.32,0.39,0.94,0.0,0.0,0.0,-9.56,1.41,1.65
1738244951.4112222,55791,0,0,,0.0,-0.55,0.35,0.7,0.31,0.26,0.27,0.19,-9.83,0.38,-0.09,0.0,0.0,0.0,-9.56,1.45,1.59
1738244951.4286954,55792,0,0,,0.0,-0.55,0.35,0.7,0.3,0.05,0.26,0.22,-9.7,0.41,-0.94,0.0,0.0,0.0,-9.56,1.48,1.57
1738244951.4436707,55793,0,0,,0.0,-0.55,0.35,0.7,0.3,-0.08,0.31,0.22,-9.85,0.6,-0.32,0.0,0.0,0.0,-9.56,1.51,1.51
1738244951.461286,55794,0,0,,0.0,-0.55,0.35,0.7,0.3,-0.03,0.28,0.24,-9.46,0.93,0.07,0.0,0.0,0.0,-9.57,1.55,1.46
1738244951.4785712,55795,0,0,,0.0,-0.55,0.35,0.7,0.3,-0.01,0.26,0.25,-9.5,0.89,0.26,0.0,0.0,0.0,-9.57,1.58,1.44
1738244951.4943426,55796,0,0,,0.0,-0.55,0.35,0.7,0.29,0.05,0.33,0.22,-9.56,1.5,-0.18,0.0,0.0,0.0,-9.57,1.62,1.38
1738244951.5113602,55797,0,0,,0.0,-0.55,0.36,0.69,0.29,0.0,0.41,0.17,-9.98,1.86,0.42,0.0,0.0,0.0,-9.57,1.66,1.31
1738244951.5288608,55798,0,0,,0.0,-0.56,0.36,0.69,0.29,-0.07,0.4,0.15,-9.87,2.05,0.4,0.0,0.0,0.0,-9.57,1.67,1.27
1738244951.5444338,55799,0,0,,0.0,-0.56,0.36,0.69,0.29,-0.25,0.37,0.12,-9.19,1.35,-1.16,0.0,0.0,0.0,-9.58,1.69,1.21
1738244951.5625734,55800,0,0,,0.0,-0.56,0.36,0.69,0.28,-0.23,0.45,0.05,-9.85,1.13,-0.79,0.0,0.0,0.0,-9.59,1.7,1.14
1738244951.579154,55801,0,0,,0.0,-0.56,0.36,0.69,0.28,-0.21,0.46,0.03,-10.19,1.06,0.12,0.0,0.0,0.0,-9.59,1.69,1.06
1738244951.5948658,55802,0,0,,0.0,-0.57,0.36,0.69,0.28,-0.09,0.41,0.01,-9.67,1.24,-0.39,0.0,0.0,0.0,-9.6,1.69,1.02
1738244951.6126335,55803,0,0,,0.0,-0.57,0.36,0.69,0.28,-0.0,0.44,-0.05,-9.23,1.12,-1.46,0.0,0.0,0.0,-9.61,1.69,0.94
1738244951.6295924,55804,0,0,,0.0,-0.57,0.36,0.68,0.28,-0.02,0.5,-0.1,-9.82,1.32,-0.45,0.0,0.0,0.0,-9.62,1.67,0.85
1738244951.6449165,55805,0,0,,0.0,-0.57,0.36,0.68,0.28,0.01,0.53,-0.15,-10.14,1.45,0.34,0.0,0.0,0.0,-9.63,1.65,0.8
1738244951.6632524,55806,0,0,,0.0,-0.58,0.36,0.68,0.28,0.09,0.45,-0.13,-9.62,1.2,-0.41,0.0,0.0,0.0,-9.64,1.63,0.71
1738244951.6803803,55807,0,0,,0.0,-0.58,0.36,0.67,0.28,0.12,0.44,-0.14,-9.66,1.08,-1.18,0.0,0.0,0.0,-9.65,1.6,0.62
1738244951.6957767,55808,0,0,,0.0,-0.58,0.36,0.67,0.28,0.1,0.48,-0.16,-9.55,1.26,-1.73,0.0,0.0,0.0,-9.65,1.59,0.57
1738244951.7139034,55809,0,0,,0.0,-0.59,0.36,0.67,0.28,0.12,0.42,-0.15,-9.81,1.06,-0.71,0.0,0.0,0.0,-9.66,1.56,0.49
1738244951.7302585,55810,0,0,,0.0,-0.59,0.36,0.67,0.28,0.12,0.38,-0.12,-9.79,0.73,-0.56,0.0,0.0,0.0,-9.67,1.54,0.41
1738244951.7452223,55811,0,0,,0.0,-0.59,0.36,0.66,0.28,0.13,0.38,-0.1,-9.6,0.64,-1.26,0.0,0.0,0.0,-9.67,1.53,0.38
1738244951.7637775,55812,0,0,,0.0,-0.59,0.37,0.66,0.28,0.1,0.43,-0.09,-9.79,0.82,-1.34,0.0,0.0,0.0,-9.68,1.51,0.29
1738244951.7801123,55813,0,0,,0.0,-0.59,0.37,0.66,0.28,0.1,0.41,-0.04,-10.17,1.13,-0.39,0.0,0.0,0.0,-9.68,1.5,0.22
1738244951.7951639,55814,0,0,,0.0,-0.6,0.37,0.66,0.28,0.12,0.35,-0.01,-9.7,1.03,-1.16,0.0,0.0,0.0,-9.68,1.5,0.18
1738244951.8136,55815,0,0,,0.0,-0.6,0.37,0.66,0.28,0.08,0.4,0.01,-9.59,1.09,-2.05,0.0,0.0,0.0,-9.68,1.5,0.11
1738244951.8296533,55816,0,0,,0.0,-0.6,0.37,0.65,0.28,0.08,0.42,-0.08,-9.63,0.94,-1.74,0.0,0.0,0.0,-9.69,1.49,0.03
1738244951.8451424,55817,0,0,,0.0,-0.6,0.37,0.65,0.28,0.06,0.38,-0.1,-9.76,1.47,-1.23,0.0,0.0,0.0,-9.69,1.48,0.0
1738244951.8635132,55818,0,0,,0.0,-0.6,0.37,0.65,0.28,0.06,0.38,-0.11,-9.11,0.88,-2.52,0.0,0.0,0.0,-9.69,1.46,-0.07
1738244951.8797038,55819,0,0,,0.0,-0.61,0.37,0.65,0.27,0.04,0.43,-0.14,-9.43,0.54,-1.96,0.0,0.0,0.0,-9.69,1.43,-0.16
1738244951.8954682,55820,0,0,,0.0,-0.61,0.37,0.64,0.27,0.06,0.46,-0.16,-9.91,0.79,-1.16,0.0,0.0,0.0,-9.7,1.41,-0.2
1738244951.9124646,55821,0,0,,0.0,-0.61,0.37,0.64,0.27,0.13,0.4,-0.15,-9.53,0.84,-1.58,0.0,0.0,0.0,-9.7,1.38,-0.28
1738244951.929081,55822,0,0,,0.0,-0.62,0.37,0.64,0.27,0.17,0.4,-0.15,-9.06,0.73,-2.82,0.0,0.0,0.0,-9.7,1.35,-0.37
1738244951.9445527,55823,0,0,,0.0,-0.62,0.37,0.63,0.27,0.17,0.47,-0.2,-9.78,0.71,-1.95,0.0,0.0,0.0,-9.7,1.33,-0.41
1738244951.9623914,55824,0,0,,0.0,-0.62,0.37,0.63,0.27,0.18,0.46,-0.21,-10.11,1.21,-1.27,0.0,0.0,0.0,-9.7,1.29,-0.51
1738244951.9791195,55825,0,0,,0.0,-0.62,0.38,0.63,0.28,0.17,0.41,-0.2,-9.46,0.73,-2.15,0.0,0.0,0.0,-9.7,1.25,-0.59
1738244951.9944663,55826,0,0,,0.0,-0.63,0.38,0.63,0.28,0.19,0.44,-0.21,-9.27,0.28,-2.84,0.0,0.0,0.0,-9.7,1.23,-0.63
1738244952.0112984,55827,0,0,,0.0,-0.63,0.38,0.62,0.27,0.17,0.51,-0.26,-9.46,0.56,-2.96,0.0,0.0,0.0,-9.7,1.18,-0.73
1738244952.0289152,55828,0,0,,0.0,-0.63,0.38,0.62,0.28,0.18,0.52,-0.27,-9.94,1.12,-1.16,0.0,0.0,0.0,-9.7,1.16,-0.78
1738244952.044102,55829,0,0,,0.0,-0.64,0.38,0.62,0.28,0.2,0.51,-0.28,-9.3,0.78,-1.81,0.0,0.0,0.0,-9.7,1.1,-0.88
1738244952.0617847,55830,0,0,,0.0,-0.64,0.38,0.61,0.27,0.21,0.54,-0.3,-9.74,0.46,-2.26,0.0,0.0,0.0,-9.69,1.04,-0.99
1738244952.0788472,55831,0,0,,0.0,-0.65,0.38,0.61,0.28,0.23,0.65,-0.36,-9.67,0.67,-2.93,0.0,0.0,0.0,-9.69,1.0,-1.06
1738244952.094408,55832,0,0,,0.0,-0.65,0.38,0.6,0.28,0.31,0.67,-0.4,-9.78,0.83,-2.13,0.0,0.0,0.0,-9.68,0.92,-1.19
1738244952.111901,55833,0,0,,0.0,-0.65,0.38,0.6,0.28,0.41,0.69,-0.41,-10.02,0.52,-1.88,0.0,0.0,0.0,-9.67,0.84,-1.32
1738244952.1291413,55834,0,0,,0.0,-0.66,0.38,0.59,0.28,0.42,0.72,-0.42,-9.68,-0.01,-3.01,0.0,0.0,0.0,-9.67,0.79,-1.39
1738244952.1440446,55835,0,0,,0.0,-0.66,0.38,0.58,0.28,0.31,0.83,-0.56,-11.27,1.14,-3.1,0.0,0.0,0.0,-9.65,0.69,-1.55
1738244952.1622145,55836,0,0,,0.0,-0.67,0.38,0.58,0.28,0.2,0.81,-0.59,-9.95,-0.62,-2.83,0.0,0.0,0.0,-9.63,0.57,-1.71
1738244952.1795058,55837,0,0,,0.0,-0.67,0.38,0.57,0.29,0.3,0.83,-0.59,-10.12,-0.6,-2.68,0.0,0.0,0.0,-9.61,0.45,-1.87
1738244952.1942623,55838,0,0,,0.0,-0.67,0.38,0.56,0.29,0.43,0.92,-0.65,-10.57,-1.15,-3.19,0.0,0.0,0.0,-9.6,0.38,-1.96
1738244952.2121048,55839,0,0,,0.0,-0.68,0.38,0.55,0.29,0.33,0.95,-0.74,-10.79,-0.45,-1.98,0.0,0.0,0.0,-9.56,0.23,-2.14
1738244952.2292988,55840,0,0,,0.0,-0.69,0.38,0.54,0.29,0.27,0.93,-0.77,-10.48,-0.03,-2.03,0.0,0.0,0.0,-9.54,0.15,-2.22
1738244952.2442274,55841,0,0,,0.0,-0.69,0.38,0.54,0.29,0.31,0.97,-0.79,-9.83,-0.38,-3.18,0.0,0.0,0.0,-9.5,0.0,-2.4
1738244952.2620418,55842,0,0,,0.0,-0.7,0.38,0.53,0.3,0.49,1.09,-0.85,-9.61,-0.98,-2.67,0.0,0.0,0.0,-9.45,-0.17,-2.59
1738244952.279766,55843,0,0,,0.0,-0.71,0.38,0.52,0.3,0.58,1.14,-0.9,-9.43,-0.32,-2.31,0.0,0.0,0.0,-9.38,-0.37,-2.8
1738244952.294621,55844,0,0,,0.0,-0.71,0.38,0.51,0.3,0.65,1.24,-0.95,-9.36,0.45,-2.47,0.0,0.0,0.0,-9.35,-0.47,-2.91
1738244952.3120282,55845,0,0,,0.0,-0.72,0.38,0.49,0.31,0.54,1.39,-1.01,-9.32,-0.57,-3.19,0.0,0.0,0.0,-9.26,-0.68,-3.15
1738244952.3292794,55846,0,0,,0.0,-0.73,0.38,0.48,0.31,0.59,1.5,-1.02,-9.88,-0.91,-2.03,0.0,0.0,0.0,-9.2,-0.79,-3.28
1738244952.3443902,55847,0,0,,0.0,-0.73,0.38,0.47,0.31,0.87,1.66,-0.96,-10.06,-0.94,-0.8,0.0,0.0,0.0,-9.08,-1.02,-3.55
1738244952.3627172,55848,0,0,,0.0,-0.74,0.38,0.45,0.32,1.08,1.89,-0.91,-9.6,-1.02,-2.42,0.0,0.0,0.0,-8.93,-1.26,-3.85
1738244952.3794796,55849,0,0,,0.0,-0.75,0.39,0.43,0.32,0.99,2.12,-0.92,-11.19,0.0,-4.24,0.0,0.0,0.0,-8.73,-1.48,-4.2
1738244952.3947675,55850,0,0,,0.0,-0.76,0.39,0.41,0.32,0.51,2.58,-0.94,-13.27,0.67,-5.76,0.0,0.0,0.0,-8.6,-1.58,-4.41
1738244952.4121506,55851,0,0,,0.0,-0.77,0.39,0.39,0.31,-0.05,2.83,-1.04,-13.41,0.15,-5.53,0.0,0.0,0.0,-8.32,-1.76,-4.87
1738244952.429957,55852,0,0,,0.0,-0.79,0.39,0.37,0.3,-0.34,2.83,-1.06,-11.99,-0.22,-5.49,0.0,0.0,0.0,-8.17,-1.82,-5.1
1738244952.4450793,55853,0,0,,0.0,-0.79,0.39,0.36,0.3,-0.59,2.76,-1.04,-10.7,-1.21,-5.01,0.0,0.0,0.0,-7.84,-1.93,-5.55
1738244952.4629588,55854,0,0,,0.0,-0.81,0.38,0.34,0.29,-0.47,2.41,-0.88,-10.96,-3.5,-5.3,0.0,0.0,0.0,-7.52,-2.01,-5.95
1738244952.4797335,55855,0,0,,0.0,-0.82,0.38,0.32,0.28,-0.07,2.18,-0.79,-11.18,-2.89,-4.74,0.0,0.0,0.0,-7.26,-2.13,-6.23
1738244952.4951787,55856,0,0,,0.0,-0.82,0.39,0.31,0.28,0.47,1.6,-0.55,-9.33,-1.52,-4.73,0.0,0.0,0.0,-7.15,-2.2,-6.33
1738244952.5119662,55857,0,0,,0.0,-0.83,0.38,0.3,0.28,0.57,1.37,-0.44,-7.95,-0.39,-4.62,0.0,0.0,0.0,-6.97,-2.32,-6.48
1738244952.5295253,55858,0,0,,0.0,-0.83,0.39,0.29,0.28,0.58,0.92,-0.21,-7.49,-0.37,-4.48,0.0,0.0,0.0,-6.91,-2.37,-6.53
1738244952.5447574,55859,0,0,,0.0,-0.83,0.39,0.29,0.29,0.46,0.4,-0.01,-6.88,-0.68,-4.18,0.0,0.0,0.0,-6.84,-2.44,-6.58
1738244952.563115,55860,0,0,,0.0,-0.83,0.39,0.29,0.29,0.3,-0.13,0.2,-5.71,-0.71,-3.85,0.0,0.0,0.0,-6.85,-2.47,-6.56
1738244952.5799074,55861,0,0,,0.0,-0.82,0.39,0.29,0.29,0.18,-0.41,0.32,-5.39,-0.81,-3.8,0.0,0.0,0.0,-6.88,-2.46,-6.53
1738244952.5952368,55862,0,0,,0.0,-0.82,0.39,0.3,0.29,-0.07,-0.9,0.52,-4.92,-1.19,-4.15,0.0,0.0,0.0,-7.0,-2.39,-6.43
1738244952.6128535,55863,0,0,,0.0,-0.82,0.39,0.31,0.29,-0.25,-1.33,0.7,-4.85,-1.45,-4.44,0.0,0.0,0.0,-7.18,-2.28,-6.27
1738244952.6299708,55864,0,0,,0.0,-0.81,0.39,0.32,0.29,-0.28,-1.52,0.79,-4.85,-1.78,-4.84,0.0,0.0,0.0,-7.41,-2.13,-6.05
1738244952.6446633,55865,0,0,,0.0,-0.8,0.4,0.33,0.29,-0.23,-1.85,0.92,-5.0,-2.03,-4.86,0.0,0.0,0.0,-7.53,-2.05,-5.92
1738244952.6622624,55866,0,0,,0.0,-0.79,0.4,0.35,0.3,-0.11,-2.19,1.01,-5.44,-2.11,-4.78,0.0,0.0,0.0,-7.81,-1.88,-5.61
1738244952.6799538,55867,0,0,,0.0,-0.78,0.4,0.37,0.3,-0.02,-2.33,0.96,-5.57,-2.47,-4.97,0.0,0.0,0.0,-7.95,-1.81,-5.44
1738244952.6945064,55868,0,0,,0.0,-0.77,0.4,0.39,0.31,0.08,-2.63,1.12,-5.89,-2.37,-5.2,0.0,0.0,0.0,-8.25,-1.64,-5.03
1738244952.7122245,55869,0,0,,0.0,-0.76,0.4,0.41,0.31,0.13,-2.76,1.17,-6.07,-2.58,-5.57,0.0,0.0,0.0,-8.54,-1.47,-4.57
1738244952.7297816,55870,0,0,,0.0,-0.74,0.4,0.43,0.32,0.24,-2.96,1.22,-6.25,-2.7,-5.92,0.0,0.0,0.0,-8.69,-1.37,-4.32
1738244952.7448277,55871,0,0,,0.0,-0.73,0.4,0.45,0.33,0.15,-3.07,1.29,-6.6,-2.54,-5.99,0.0,0.0,0.0,-8.96,-1.17,-3.8
1738244952.762352,55872,0,0,,0.0,-0.71,0.4,0.47,0.33,-0.24,-3.12,1.29,-7.05,-2.07,-6.22,0.0,0.0,0.0,-9.2,-0.94,-3.25
1738244952.7799256,55873,0,0,,0.0,-0.69,0.39,0.5,0.33,-0.51,-3.13,1.27,-7.16,-2.07,-6.31,0.0,0.0,0.0,-9.4,-0.67,-2.7
1738244952.794901,55874,0,0,,0.0,-0.69,0.39,0.52,0.33,-0.93,-3.13,1.21,-7.52,-2.28,-6.29,0.0,0.0,0.0,-9.48,-0.54,-2.42
1738244952.8118336,55875,0,0,,0.0,-0.67,0.38,0.54,0.33,-1.01,-3.11,1.19,-7.89,-2.57,-6.16,0.0,0.0,0.0,-9.62,-0.28,-1.85
1738244952.8298986,55876,0,0,,0.0,-0.65,0.38,0.57,0.33,-0.92,-3.07,1.15,-8.07,-2.71,-6.19,0.0,0.0,0.0,-9.67,-0.16,-1.57
1738244952.844759,55877,0,0,,0.0,-0.64,0.37,0.58,0.33,-0.71,-3.03,1.15,-8.95,-2.98,-5.84,0.0,0.0,0.0,-9.75,0.07,-0.99
1738244952.8623042,55878,0,0,,0.0,-0.62,0.37,0.61,0.33,-0.45,-2.96,1.17,-9.6,-2.26,-6.07,0.0,0.0,0.0,-9.79,0.3,-0.43
1738244952.87972,55879,0,0,,0.0,-0.6,0.36,0.63,0.33,-0.41,-2.9,1.18,-9.82,-2.03,-6.1,0.0,0.0,0.0,-9.79,0.41,-0.15
1738244952.89499,55880,0,0,,0.0,-0.59,0.36,0.64,0.33,-0.5,-2.71,1.17,-10.11,-1.61,-5.83,0.0,0.0,0.0,-9.77,0.63,0.37
1738244952.9120853,55881,0,0,,0.0,-0.58,0.35,0.66,0.33,-0.6,-2.59,1.15,-10.41,-1.5,-5.61,0.0,0.0,0.0,-9.73,0.84,0.85
1738244952.9299946,55882,0,0,,0.0,-0.56,0.35,0.68,0.33,-0.76,-2.34,1.06,-10.41,-1.49,-5.7,0.0,0.0,0.0,-9.66,1.01,1.29
1738244952.945026,55883,0,0,,0.0,-0.55,0.34,0.69,0.33,-0.82,-2.0,0.94,-10.47,-1.63,-5.94,0.0,0.0,0.0,-9.63,1.09,1.49
1738244952.9630425,55884,0,0,,0.0,-0.54,0.34,0.7,0.32,-0.78,-1.61,0.75,-10.48,-1.86,-5.96,0.0,0.0,0.0,-9.55,1.22,1.82
1738244952.98045,55885,0,0,,0.0,-0.53,0.33,0.71,0.32,-0.7,-1.4,0.64,-10.27,-2.16,-5.91,0.0,0.0,0.0,-9.49,1.3,2.08
1738244952.9950411,55886,0,0,,0.0,-0.53,0.33,0.71,0.32,-0.49,-1.0,0.46,-10.01,-1.89,-5.5,0.0,0.0,0.0,-9.46,1.33,2.18
1738244953.012458,55887,0,0,,0.0,-0.52,0.33,0.72,0.32,-0.39,-0.81,0.4,-9.68,-1.78,-5.56,0.0,0.0,0.0,-9.42,1.39,2.32
1738244953.0303304,55888,0,0,,0.0,-0.52,0.33,0.72,0.31,-0.23,-0.4,0.29,-9.5,-1.83,-5.91,0.0,0.0,0.0,-9.4,1.42,2.37
1738244953.045316,55889,0,0,,0.0,-0.52,0.33,0.72,0.31,-0.15,0.05,0.14,-9.61,-1.75,-4.18,0.0,0.0,0.0,-9.4,1.43,2.37
1738244953.0624647,55890,0,0,,0.0,-0.52,0.33,0.72,0.31,0.22,0.3,0.09,-12.77,0.96,3.47,0.0,0.0,0.0,-9.41,1.45,2.32
1738244953.0799325,55891,0,0,,0.0,-0.52,0.33,0.72,0.31,0.47,0.15,0.17,-15.95,4.31,9.34,0.0,0.0,0.0,-9.4,1.51,2.3
1738244953.0953045,55892,0,0,,0.0,-0.52,0.33,0.72,0.31,-0.23,-0.18,0.26,-9.7,2.83,0.55,0.0,0.0,0.0,-9.4,1.53,2.32
1738244953.1112313,55893,0,0,,0.0,-0.52,0.33,0.73,0.3,-0.81,-0.03,0.16,-8.08,1.48,-1.4,0.0,0.0,0.0,-9.4,1.52,2.33
1738244953.1299996,55894,0,0,,0.0,-0.53,0.33,0.73,0.3,-0.56,0.34,0.1,-10.44,-0.15,-0.01,0.0,0.0,0.0,-9.4,1.52,2.31
1738244953.144998,55895,0,0,,0.0,-0.53,0.32,0.73,0.3,-0.4,0.41,0.09,-9.83,-0.52,0.09,0.0,0.0,0.0,-9.42,1.52,2.25
1738244953.161506,55896,0,0,,0.0,-0.53,0.33,0.72,0.3,-0.25,0.41,0.08,-9.32,1.06,0.83,0.0,0.0,0.0,-9.43,1.53,2.18
1738244953.1802537,55897,0,0,,0.0,-0.53,0.33,0.72,0.29,-0.02,0.35,0.14,-9.32,1.49,1.1,0.0,0.0,0.0,-9.44,1.54,2.15
1738244953.1949556,55898,0,0,,0.0,-0.53,0.33,0.72,0.29,0.19,0.32,0.2,-9.44,1.06,0.45,0.0,0.0,0.0,-9.44,1.58,2.09
1738244953.2112327,55899,0,0,,0.0,-0.53,0.33,0.72,0.29,0.3,0.33,0.19,-9.37,1.4,0.05,0.0,0.0,0.0,-9.45,1.62,2.01
1738244953.2299776,55900,0,0,,0.0,-0.54,0.34,0.72,0.29,0.44,0.41,0.16,-9.7,1.46,0.23,0.0,0.0,0.0,-9.46,1.65,1.97
1738244953.24566,55901,0,0,,0.0,-0.54,0.34,0.71,0.29,0.46,0.42,0.15,-10.23,0.81,0.99,0.0,0.0,0.0,-9.47,1.69,1.87
1738244953.2618623,55902,0,0,,0.0,-0.54,0.35,0.71,0.29,0.44,0.42,0.13,-9.85,0.81,0.13,0.0,0.0,0.0,-9.48,1.73,1.78
1738244953.2806962,55903,0,0,,0.0,-0.54,0.35,0.71,0.29,0.33,0.46,0.1,-9.55,0.8,-0.66,0.0,0.0,0.0,-9.49,1.76,1.69
1738244953.295323,55904,0,0,,0.0,-0.54,0.35,0.71,0.29,0.18,0.5,0.1,-9.79,1.3,-0.17,0.0,0.0,0.0,-9.5,1.77,1.64
1738244953.3112984,55905,0,0,,0.0,-0.54,0.35,0.7,0.29,0.09,0.48,0.11,-9.8,1.47,0.2,0.0,0.0,0.0,-9.51,1.8,1.55
1738244953.3299944,55906,0,0,,0.0,-0.55,0.36,0.7,0.29,-0.01,0.4,0.16,-9.62,1.12,-0.26,0.0,0.0,0.0,-9.51,1.81,1.51
1738244953.3455389,55907,0,0,,0.0,-0.55,0.36,0.7,0.29,-0.0,0.4,0.16,-9.62,1.15,-1.02,0.0,0.0,0.0,-9.52,1.84,1.44
1738244953.3623166,55908,0,0,,0.0,-0.55,0.36,0.7,0.28,0.03,0.4,0.15,-10.2,1.45,0.23,0.0,0.0,0.0,-9.52,1.87,1.37
1738244953.3800323,55909,0,0,,0.0,-0.55,0.36,0.7,0.28,0.0,0.34,0.13,-10.04,1.6,0.08,0.0,0.0,0.0,-9.53,1.89,1.31
1738244953.3956363,55910,0,0,,0.0,-0.55,0.36,0.7,0.28,-0.06,0.32,0.1,-9.41,1.29,-1.1,0.0,0.0,0.0,-9.53,1.9,1.28
1738244953.411977,55911,0,0,,0.0,-0.55,0.36,0.7,0.28,-0.09,0.36,0.06,-9.82,1.27,-0.6,0.0,0.0,0.0,-9.54,1.9,1.22
1738244953.4302783,55912,0,0,,0.0,-0.56,0.36,0.69,0.28,-0.1,0.41,0.0,-10.06,1.42,0.08,0.0,0.0,0.0,-9.54,1.9,1.18
1738244953.4453895,55913,0,0,,0.0,-0.56,0.36,0.69,0.28,-0.04,0.39,-0.03,-9.57,1.57,-0.25,0.0,0.0,0.0,-9.55,1.9,1.11
1738244953.4626868,55914,0,0,,0.0,-0.56,0.36,0.69,0.28,-0.01,0.39,-0.06,-9.16,1.17,-1.2,0.0,0.0,0.0,-9.56,1.88,1.03
1738244953.4804726,55915,0,0,,0.0,-0.57,0.36,0.69,0.27,0.08,0.5,-0.14,-9.53,1.31,-0.51,0.0,0.0,0.0,-9.58,1.86,0.93
1738244953.4970791,55916,0,0,,0.0,-0.57,0.36,0.69,0.27,0.14,0.52,-0.17,-9.89,1.62,0.09,0.0,0.0,0.0,-9.59,1.84,0.88
1738244953.5160596,55917,0,0,,0.0,-0.57,0.37,0.68,0.28,0.16,0.45,-0.17,-9.63,1.13,-0.51,0.0,0.0,0.0,-9.6,1.81,0.79
1738244953.5316556,55918,0,0,,0.0,-0.58,0.37,0.68,0.28,0.19,0.45,-0.17,-9.82,1.07,-0.92,0.0,0.0,0.0,-9.62,1.77,0.64
1738244953.547029,55919,0,0,,0.0,-0.58,0.37,0.67,0.28,0.14,0.46,-0.19,-9.55,1.37,-1.64,0.0,0.0,0.0,-9.62,1.75,0.6
1738244953.5651147,55920,0,0,,0.0,-0.58,0.37,0.67,0.28,0.09,0.4,-0.17,-9.82,1.25,-1.09,0.0,0.0,0.0,-9.63,1.72,0.52
1738244953.5816786,55921,0,0,,0.0,-0.58,0.37,0.67,0.28,0.04,0.36,-0.16,-9.81,0.72,-0.9,0.0,0.0,0.0,-9.64,1.69,0.45
1738244953.5967152,55922,0,0,,0.0,-0.58,0.37,0.67,0.28,-0.03,0.38,-0.17,-9.35,0.64,-2.08,0.0,0.0,0.0,-9.65,1.67,0.41
1738244953.6149535,55923,0,0,,0.0,-0.59,0.37,0.67,0.27,-0.11,0.39,-0.18,-9.78,1.02,-1.37,0.0,0.0,0.0,-9.66,1.64,0.34
1738244953.6312323,55924,0,0,,0.0,-0.59,0.37,0.66,0.27,-0.14,0.36,-0.17,-10.15,1.23,-0.17,0.0,0.0,0.0,-9.66,1.61,0.28
1738244953.6469262,55925,0,0,,0.0,-0.59,0.37,0.66,0.27,-0.15,0.33,-0.14,-9.53,0.91,-1.26,0.0,0.0,0.0,-9.67,1.6,0.26
1738244953.6642842,55926,0,0,,0.0,-0.6,0.37,0.66,0.27,-0.11,0.4,-0.13,-9.51,0.59,-1.5,0.0,0.0,0.0,-9.67,1.57,0.19
1738244953.6810765,55927,0,0,,0.0,-0.6,0.37,0.66,0.27,-0.09,0.41,-0.12,-9.52,1.02,-1.63,0.0,0.0,0.0,-9.68,1.55,0.11
1738244953.6964924,55928,0,0,,0.0,-0.6,0.37,0.66,0.27,-0.05,0.38,-0.12,-9.75,1.62,-0.99,0.0,0.0,0.0,-9.68,1.53,0.08
1738244953.7127051,55929,0,0,,0.0,-0.6,0.37,0.65,0.27,-0.05,0.39,-0.08,-9.15,0.99,-2.39,0.0,0.0,0.0,-9.68,1.52,0.01
1738244953.731374,55930,0,0,,0.0,-0.61,0.37,0.65,0.27,-0.06,0.43,-0.09,-9.3,0.59,-2.07,0.0,0.0,0.0,-9.69,1.49,-0.06
1738244953.7464976,55931,0,0,,0.0,-0.61,0.37,0.65,0.27,-0.03,0.45,-0.17,-9.94,0.9,-1.09,0.0,0.0,0.0,-9.69,1.48,-0.1
1738244953.7643807,55932,0,0,,0.0,-0.61,0.37,0.65,0.27,0.04,0.38,-0.16,-9.58,0.79,-1.68,0.0,0.0,0.0,-9.69,1.45,-0.18
1738244953.7812383,55933,0,0,,0.0,-0.61,0.37,0.64,0.27,0.08,0.39,-0.16,-9.21,0.77,-2.67,0.0,0.0,0.0,-9.69,1.41,-0.26
1738244953.7970626,55934,0,0,,0.0,-0.62,0.37,0.64,0.27,0.08,0.44,-0.2,-9.82,0.77,-1.92,0.0,0.0,0.0,-9.7,1.4,-0.3
1738244953.8131177,55935,0,0,,0.0,-0.62,0.37,0.64,0.27,0.13,0.4,-0.2,-10.0,1.03,-1.41,0.0,0.0,0.0,-9.7,1.36,-0.38
1738244953.8315177,55936,0,0,,0.0,-0.62,0.37,0.64,0.27,0.15,0.37,-0.18,-9.46,0.52,-2.06,0.0,0.0,0.0,-9.7,1.32,-0.45
1738244953.8459778,55937,0,0,,0.0,-0.62,0.37,0.63,0.27,0.23,0.4,-0.2,-9.18,0.34,-2.75,0.0,0.0,0.0,-9.7,1.3,-0.5
1738244953.8621476,55938,0,0,,0.0,-0.63,0.37,0.63,0.27,0.27,0.46,-0.23,-9.46,0.98,-2.54,0.0,0.0,0.0,-9.7,1.25,-0.59
1738244953.881792,55939,0,0,,0.0,-0.63,0.37,0.62,0.27,0.3,0.47,-0.26,-9.55,0.92,-2.04,0.0,0.0,0.0,-9.7,1.2,-0.68
1738244953.8961372,55940,0,0,,0.0,-0.63,0.37,0.62,0.27,0.33,0.48,-0.27,-9.37,0.99,-1.9,0.0,0.0,0.0,-9.7,1.17,-0.73
1738244953.9122317,55941,0,0,,0.0,-0.63,0.38,0.62,0.28,0.33,0.52,-0.29,-9.36,0.99,-2.59,0.0,0.0,0.0,-9.7,1.11,-0.84
1738244953.9309742,55942,0,0,,0.0,-0.64,0.38,0.61,0.28,0.33,0.62,-0.37,-9.59,0.75,-2.74,0.0,0.0,0.0,-9.7,1.03,-0.97
1738244953.9457173,55943,0,0,,0.0,-0.64,0.38,0.61,0.28,0.34,0.65,-0.4,-10.13,0.95,-0.98,0.0,0.0,0.0,-9.7,0.99,-1.03
1738244953.9614518,55944,0,0,,0.0,-0.65,0.38,0.6,0.28,0.33,0.67,-0.4,-9.76,0.4,-1.89,0.0,0.0,0.0,-9.69,0.91,-1.17
1738244953.9811769,55945,0,0,,0.0,-0.65,0.38,0.59,0.28,0.29,0.75,-0.45,-9.89,0.13,-3.37,0.0,0.0,0.0,-9.68,0.81,-1.32
1738244953.9960232,55946,0,0,,0.0,-0.65,0.38,0.59,0.28,0.15,0.81,-0.56,-11.54,0.27,-2.65,0.0,0.0,0.0,-9.67,0.75,-1.39
1738244954.0109208,55947,0,0,,0.0,-0.66,0.38,0.58,0.28,0.15,0.79,-0.56,-11.77,0.2,-1.37,0.0,0.0,0.0,-9.66,0.7,-1.47
1738244954.0309231,55948,0,0,,0.0,-0.67,0.38,0.58,0.29,0.26,0.78,-0.56,-10.39,-0.48,-2.27,0.0,0.0,0.0,-9.65,0.59,-1.62
1738244954.0460005,55949,0,0,,0.0,-0.67,0.38,0.57,0.29,0.19,0.87,-0.64,-10.21,-0.89,-3.04,0.0,0.0,0.0,-9.63,0.47,-1.77
1738244954.0615256,55950,0,0,,0.0,-0.68,0.38,0.56,0.29,0.09,0.88,-0.69,-10.05,-0.63,-3.1,0.0,0.0,0.0,-9.6,0.33,-1.94
1738244954.0812457,55951,0,0,,0.0,-0.68,0.37,0.56,0.29,0.01,0.87,-0.76,-10.15,-0.31,-2.0,0.0,0.0,0.0,-9.57,0.19,-2.1
1738244954.0957878,55952,0,0,,0.0,-0.69,0.37,0.55,0.29,0.09,0.92,-0.79,-9.22,-0.26,-3.42,0.0,0.0,0.0,-9.55,0.12,-2.19
1738244954.1109884,55953,0,0,,0.0,-0.7,0.37,0.54,0.29,0.11,0.99,-0.84,-8.96,-0.65,-3.56,0.0,0.0,0.0,-9.51,-0.04,-2.38
1738244954.130996,55954,0,0,,0.0,-0.7,0.37,0.53,0.29,0.21,1.09,-0.93,-9.37,0.0,-2.73,0.0,0.0,0.0,-9.48,-0.13,-2.48
1738244954.1455321,55955,0,0,,0.0,-0.71,0.37,0.52,0.3,0.32,1.15,-0.93,-9.37,0.73,-2.67,0.0,0.0,0.0,-9.42,-0.32,-2.69
1738244954.1607635,55956,0,0,,0.0,-0.72,0.37,0.51,0.3,0.35,1.2,-0.92,-9.31,0.52,-2.81,0.0,0.0,0.0,-9.38,-0.41,-2.79
1738244954.1810033,55957,0,0,,0.0,-0.73,0.37,0.5,0.3,0.45,1.4,-0.94,-9.62,-0.58,-2.8,0.0,0.0,0.0,-9.3,-0.6,-3.03
1738244954.1961846,55958,0,0,,0.0,-0.73,0.37,0.49,0.3,0.54,1.58,-0.94,-9.95,-0.62,-1.51,0.0,0.0,0.0,-9.19,-0.8,-3.3
1738244954.2113461,55959,0,0,,0.0,-0.74,0.37,0.47,0.3,0.56,1.65,-0.91,-10.06,-0.36,-1.64,0.0,0.0,0.0,-9.13,-0.9,-3.44
1738244954.2313552,55960,0,0,,0.0,-0.75,0.37,0.46,0.3,0.47,1.84,-0.84,-10.26,-0.44,-2.29,0.0,0.0,0.0,-8.99,-1.09,-3.74
1738244954.2455907,55961,0,0,,0.0,-0.76,0.37,0.45,0.3,0.32,2.22,-0.8,-11.75,-0.17,-3.76,0.0,0.0,0.0,-8.81,-1.25,-4.1
1738244954.261415,55962,0,0,,0.0,-0.77,0.37,0.42,0.3,0.25,2.41,-0.79,-12.35,-0.06,-3.87,0.0,0.0,0.0,-8.7,-1.33,-4.3
1738244954.2811012,55963,0,0,,0.0,-0.78,0.37,0.4,0.29,0.15,2.56,-0.79,-12.83,0.4,-2.97,0.0,0.0,0.0,-8.46,-1.48,-4.72
1738244954.2961154,55964,0,0,,0.0,-0.79,0.37,0.39,0.29,0.03,2.53,-0.75,-11.81,-0.79,-4.5,0.0,0.0,0.0,-8.19,-1.61,-5.13
1738244954.3110187,55965,0,0,,0.0,-0.8,0.37,0.37,0.28,-0.04,2.49,-0.74,-11.15,-0.59,-5.38,0.0,0.0,0.0,-8.05,-1.66,-5.33
1738244954.3310487,55966,0,0,,0.0,-0.81,0.37,0.35,0.28,-0.17,2.24,-0.61,-10.28,-1.12,-5.38,0.0,0.0,0.0,-7.79,-1.75,-5.69
1738244954.3458295,55967,0,0,,0.0,-0.81,0.38,0.35,0.27,0.06,1.8,-0.42,-8.35,-2.41,-5.23,0.0,0.0,0.0,-7.55,-1.81,-5.97
1738244954.3616729,55968,0,0,,0.0,-0.82,0.38,0.33,0.27,0.35,1.57,-0.35,-8.16,-2.54,-5.09,0.0,0.0,0.0,-7.46,-1.86,-6.08
1738244954.381378,55969,0,0,,0.0,-0.82,0.38,0.32,0.27,0.68,1.31,-0.28,-7.51,-0.97,-3.76,0.0,0.0,0.0,-7.22,-2.02,-6.3
1738244954.3957717,55970,0,0,,0.0,-0.82,0.38,0.32,0.28,0.83,0.75,-0.08,-6.92,-1.2,-4.2,0.0,0.0,0.0,-7.18,-2.08,-6.34
1738244954.4117835,55971,0,0,,0.0,-0.82,0.39,0.31,0.28,0.84,0.28,0.02,-6.6,-0.38,-4.45,0.0,0.0,0.0,-7.14,-2.18,-6.34
1738244954.431429,55972,0,0,,0.0,-0.82,0.39,0.31,0.29,0.73,0.06,0.09,-6.34,0.07,-4.6,0.0,0.0,0.0,-7.15,-2.24,-6.31
1738244954.445837,55973,0,0,,0.0,-0.82,0.39,0.31,0.29,0.34,-0.36,0.25,-5.97,-0.35,-4.99,0.0,0.0,0.0,-7.18,-2.24,-6.28
1738244954.4615786,55974,0,0,,0.0,-0.81,0.39,0.32,0.29,0.0,-0.73,0.41,-5.94,-0.5,-4.95,0.0,0.0,0.0,-7.29,-2.19,-6.17
1738244954.481615,55975,0,0,,0.0,-0.81,0.39,0.33,0.29,-0.13,-0.9,0.5,-5.63,-1.11,-5.06,0.0,0.0,0.0,-7.43,-2.09,-6.04
1738244954.495896,55976,0,0,,0.0,-0.81,0.39,0.33,0.29,-0.24,-1.24,0.66,-5.68,-1.65,-4.89,0.0,0.0,0.0,-7.51,-2.03,-5.96
1738244954.5114202,55977,0,0,,0.0,-0.8,0.39,0.35,0.29,-0.17,-1.56,0.8,-5.8,-1.83,-4.84,0.0,0.0,0.0,-7.72,-1.89,-5.73
1738244954.5316758,55978,0,0,,0.0,-0.79,0.39,0.37,0.3,-0.09,-1.72,0.86,-6.02,-2.16,-4.61,0.0,0.0,0.0,-7.95,-1.75,-5.46
1738244954.5460982,55979,0,0,,0.0,-0.78,0.4,0.37,0.3,0.11,-2.04,0.98,-6.48,-2.12,-4.44,0.0,0.0,0.0,-8.07,-1.68,-5.3
1738244954.5621793,55980,0,0,,0.0,-0.77,0.4,0.39,0.31,0.21,-2.18,1.03,-6.69,-1.97,-4.42,0.0,0.0,0.0,-8.32,-1.54,-4.94
1738244954.581317,55981,0,0,,0.0,-0.76,0.4,0.41,0.31,0.33,-2.45,1.02,-7.06,-2.09,-4.5,0.0,0.0,0.0,-8.58,-1.39,-4.52
1738244954.5960588,55982,0,0,,0.0,-0.75,0.4,0.42,0.32,0.34,-2.67,1.15,-7.37,-1.93,-4.54,0.0,0.0,0.0,-8.71,-1.31,-4.29
1738244954.6117277,55983,0,0,,0.0,-0.73,0.4,0.45,0.33,0.32,-2.77,1.19,-7.57,-1.92,-4.46,0.0,0.0,0.0,-8.96,-1.13,-3.8
1738244954.6317062,55984,0,0,,0.0,-0.71,0.4,0.47,0.33,0.17,-2.95,1.32,-7.95,-2.01,-4.68,0.0,0.0,0.0,-9.19,-0.9,-3.27
1738244954.6463675,55985,0,0,,0.0,-0.7,0.4,0.49,0.33,-0.1,-3.1,1.4,-8.21,-1.66,-4.65,0.0,0.0,0.0,-9.3,-0.77,-2.99
1738244954.6617427,55986,0,0,,0.0,-0.68,0.4,0.51,0.34,-0.28,-3.17,1.43,-8.48,-1.58,-4.89,0.0,0.0,0.0,-9.49,-0.49,-2.42
1738244954.6821816,55987,0,0,,0.0,-0.66,0.39,0.54,0.34,-0.72,-3.27,1.46,-8.74,-1.77,-5.12,0.0,0.0,0.0,-9.63,-0.19,-1.81
1738244954.6962664,55988,0,0,,0.0,-0.65,0.39,0.56,0.34,-1.06,-3.35,1.41,-9.58,-2.55,-5.54,0.0,0.0,0.0,-9.69,-0.04,-1.5
1738244954.7119367,55989,0,0,,0.0,-0.63,0.38,0.59,0.33,-1.17,-3.37,1.36,-9.9,-2.79,-5.69,0.0,0.0,0.0,-9.76,0.23,-0.86
1738244954.7321055,55990,0,0,,0.0,-0.61,0.37,0.62,0.33,-1.15,-3.39,1.26,-10.93,-2.55,-6.32,0.0,0.0,0.0,-9.79,0.48,-0.21
1738244954.74674,55991,0,0,,0.0,-0.6,0.37,0.63,0.33,-1.08,-3.31,1.18,-10.96,-2.43,-6.81,0.0,0.0,0.0,-9.78,0.59,0.1
1738244954.7620945,55992,0,0,,0.0,-0.58,0.36,0.65,0.33,-1.05,-3.22,1.14,-10.81,-1.97,-7.16,0.0,0.0,0.0,-9.74,0.79,0.71
1738244954.7818973,55993,0,0,,0.0,-0.56,0.35,0.68,0.33,-1.0,-2.91,1.06,-10.43,-1.93,-7.35,0.0,0.0,0.0,-9.67,0.97,1.25
1738244954.7971418,55994,0,0,,0.0,-0.55,0.34,0.69,0.33,-0.88,-2.48,0.97,-10.17,-2.44,-8.03,0.0,0.0,0.0,-9.63,1.05,1.49
1738244954.8128996,55995,0,0,,0.0,-0.54,0.33,0.7,0.32,-0.82,-2.23,0.92,-10.06,-2.82,-7.95,0.0,0.0,0.0,-9.54,1.19,1.9
1738244954.832055,55996,0,0,,0.0,-0.53,0.33,0.71,0.32,-0.61,-1.72,0.76,-9.28,-3.31,-8.03,0.0,0.0,0.0,-9.46,1.3,2.2
1738244954.8464344,55997,0,0,,0.0,-0.52,0.33,0.72,0.32,-0.32,-1.22,0.6,-8.55,-3.16,-8.58,0.0,0.0,0.0,-9.43,1.35,2.32
1738244954.8624976,55998,0,0,,0.0,-0.52,0.33,0.72,0.32,-0.2,-0.95,0.51,-8.38,-3.03,-8.74,0.0,0.0,0.0,-9.38,1.42,2.47
1738244954.8818977,55999,0,0,,0.0,-0.52,0.33,0.73,0.32,-0.16,-0.34,0.27,-8.26,-2.24,-8.14,0.0,0.0,0.0,-9.36,1.45,2.51
1738244954.8969681,56000,0,0,,0.0,-0.52,0.33,0.73,0.31,-0.13,0.3,0.03,-15.12,1.46,8.44,0.0,0.0,0.0,-9.37,1.45,2.48
1738244954.9121783,56001,0,0,,0.0,-0.52,0.33,0.72,0.32,0.24,0.46,-0.0,-19.83,6.21,14.73,0.0,0.0,0.0,-9.38,1.49,2.41
1738244954.9322617,56002,0,0,,0.0,-0.51,0.33,0.73,0.31,0.45,-0.34,0.42,-10.33,4.17,0.98,0.0,0.0,0.0,-9.36,1.55,2.47
1738244954.947234,56003,0,0,,0.0,-0.52,0.33,0.73,0.31,-1.15,0.04,0.14,-9.14,-2.94,-1.25,0.0,0.0,0.0,-9.36,1.53,2.48
1738244954.9626915,56004,0,0,,0.0,-0.52,0.32,0.73,0.31,-0.83,0.32,0.04,-11.05,-2.79,0.86,0.0,0.0,0.0,-9.37,1.51,2.43
1738244954.9828663,56005,0,0,,0.0,-0.52,0.32,0.73,0.3,-0.21,0.48,0.1,-9.91,-1.07,1.58,0.0,0.0,0.0,-9.39,1.52,2.35
1738244954.9967177,56006,0,0,,0.0,-0.53,0.33,0.73,0.3,0.05,0.43,0.05,-8.75,1.64,1.29,0.0,0.0,0.0,-9.4,1.53,2.31
1738244955.0124514,56007,0,0,,0.0,-0.53,0.33,0.72,0.3,0.15,0.41,0.07,-8.8,2.55,0.78,0.0,0.0,0.0,-9.42,1.55,2.23
1738244955.0318527,56008,0,0,,0.0,-0.53,0.33,0.72,0.3,0.2,0.51,0.1,-9.2,2.08,0.18,0.0,0.0,0.0,-9.44,1.58,2.12
1738244955.046642,56009,0,0,,0.0,-0.53,0.33,0.72,0.3,0.38,0.51,0.07,-9.51,1.58,1.05,0.0,0.0,0.0,-9.45,1.59,2.07
1738244955.062388,56010,0,0,,0.0,-0.53,0.34,0.72,0.3,0.46,0.45,0.1,-9.54,1.37,0.23,0.0,0.0,0.0,-9.46,1.63,1.98
1738244955.0823066,56011,0,0,,0.0,-0.53,0.35,0.71,0.3,0.57,0.43,0.11,-10.26,0.73,-0.45,0.0,0.0,0.0,-9.47,1.67,1.88
1738244955.0968988,56012,0,0,,0.0,-0.53,0.35,0.71,0.3,0.46,0.48,0.06,-10.3,1.02,1.02,0.0,0.0,0.0,-9.48,1.68,1.82
1738244955.1127596,56013,0,0,,0.0,-0.54,0.35,0.71,0.3,0.35,0.46,0.07,-9.65,1.24,0.54,0.0,0.0,0.0,-9.49,1.71,1.73
1738244955.1324165,56014,0,0,,0.0,-0.54,0.35,0.7,0.3,-0.0,0.42,0.1,-9.43,1.21,-0.71,0.0,0.0,0.0,-9.5,1.73,1.66
1738244955.14709,56015,0,0,,0.0,-0.54,0.35,0.7,0.3,-0.26,0.42,0.12,-9.96,0.88,-0.52,0.0,0.0,0.0,-9.51,1.73,1.62
1738244955.163226,56016,0,0,,0.0,-0.54,0.35,0.7,0.29,-0.32,0.39,0.14,-10.24,0.81,-0.09,0.0,0.0,0.0,-9.51,1.75,1.57
1738244955.1822839,56017,0,0,,0.0,-0.55,0.35,0.7,0.29,-0.26,0.28,0.18,-9.95,0.64,-0.52,0.0,0.0,0.0,-9.52,1.78,1.53
1738244955.2005184,56018,0,0,,0.0,-0.55,0.35,0.7,0.29,-0.16,0.23,0.19,-10.1,0.77,0.01,0.0,0.0,0.0,-9.52,1.79,1.51
1738244955.2196014,56019,0,0,,0.0,-0.55,0.35,0.7,0.28,-0.13,0.26,0.13,-9.9,1.54,0.69,0.0,0.0,0.0,-9.52,1.82,1.47
1738244955.233618,56020,0,0,,0.0,-0.55,0.35,0.7,0.28,-0.13,0.28,0.09,-9.51,1.75,0.25,0.0,0.0,0.0,-9.52,1.83,1.42
1738244955.2492237,56021,0,0,,0.0,-0.55,0.35,0.7,0.28,-0.14,0.31,0.03,-9.11,1.7,-0.67,0.0,0.0,0.0,-9.53,1.83,1.39
1738244955.2668045,56022,0,0,,0.0,-0.55,0.35,0.7,0.28,-0.07,0.41,-0.06,-9.33,1.59,-0.74,0.0,0.0,0.0,-9.54,1.82,1.32
1738244955.2840238,56023,0,0,,0.0,-0.56,0.35,0.7,0.28,0.0,0.45,-0.1,-9.54,1.57,-0.25,0.0,0.0,0.0,-9.55,1.8,1.24
1738244955.297733,56024,0,0,,0.0,-0.56,0.36,0.7,0.28,0.15,0.44,-0.14,-9.59,1.09,-0.22,0.0,0.0,0.0,-9.56,1.79,1.19
1738244955.3139107,56025,0,0,,0.0,-0.56,0.36,0.69,0.28,0.16,0.44,-0.16,-9.59,0.88,-0.81,0.0,0.0,0.0,-9.58,1.77,1.11
1738244955.3332732,56026,0,0,,0.0,-0.57,0.36,0.69,0.28,0.19,0.49,-0.2,-9.7,1.23,-0.83,0.0,0.0,0.0,-9.59,1.73,1.01
1738244955.3476474,56027,0,0,,0.0,-0.57,0.36,0.69,0.28,0.19,0.5,-0.21,-10.05,1.04,-0.04,0.0,0.0,0.0,-9.6,1.71,0.96
1738244955.3635058,56028,0,0,,0.0,-0.57,0.36,0.68,0.28,0.21,0.46,-0.21,-9.89,0.67,-0.69,0.0,0.0,0.0,-9.62,1.68,0.87
1738244955.3827193,56029,0,0,,0.0,-0.57,0.36,0.68,0.28,0.19,0.38,-0.17,-9.51,0.63,-1.71,0.0,0.0,0.0,-9.63,1.65,0.79
1738244955.397438,56030,0,0,,0.0,-0.57,0.36,0.68,0.28,0.18,0.39,-0.18,-9.69,0.85,-1.34,0.0,0.0,0.0,-9.63,1.64,0.75
1738244955.4131176,56031,0,0,,0.0,-0.58,0.36,0.67,0.28,0.15,0.37,-0.16,-10.0,1.39,-0.33,0.0,0.0,0.0,-9.64,1.61,0.68
1738244955.432866,56032,0,0,,0.0,-0.58,0.36,0.67,0.28,0.09,0.31,-0.13,-9.8,0.91,-0.25,0.0,0.0,0.0,-9.65,1.59,0.62
1738244955.4475214,56033,0,0,,0.0,-0.58,0.36,0.67,0.28,0.03,0.33,-0.12,-9.41,0.71,-1.32,0.0,0.0,0.0,-9.66,1.58,0.59
1738244955.46322,56034,0,0,,0.0,-0.58,0.36,0.67,0.28,-0.01,0.37,-0.15,-9.92,1.04,-0.47,0.0,0.0,0.0,-9.66,1.55,0.52
1738244955.4828184,56035,0,0,,0.0,-0.59,0.37,0.67,0.28,-0.03,0.39,-0.14,-10.02,1.32,-0.44,0.0,0.0,0.0,-9.67,1.52,0.45
1738244955.4974759,56036,0,0,,0.0,-0.59,0.37,0.66,0.28,0.02,0.35,-0.09,-9.33,0.78,-1.74,0.0,0.0,0.0,-9.67,1.52,0.42
1738244955.5133247,56037,0,0,,0.0,-0.59,0.37,0.66,0.28,0.07,0.36,-0.07,-9.71,0.9,-1.12,0.0,0.0,0.0,-9.68,1.5,0.34
1738244955.5334315,56038,0,0,,0.0,-0.59,0.37,0.66,0.28,0.08,0.44,-0.05,-9.81,0.92,-1.05,0.0,0.0,0.0,-9.68,1.49,0.26
1738244955.5476718,56039,0,0,,0.0,-0.59,0.37,0.66,0.28,0.07,0.42,-0.1,-9.68,1.21,-1.16,0.0,0.0,0.0,-9.69,1.48,0.22
1738244955.563541,56040,0,0,,0.0,-0.6,0.37,0.66,0.28,0.03,0.4,-0.1,-9.18,0.42,-2.28,0.0,0.0,0.0,-9.69,1.47,0.14
1738244955.5837734,56041,0,0,,0.0,-0.6,0.37,0.65,0.28,-0.01,0.44,-0.14,-9.63,0.45,-1.43,0.0,0.0,0.0,-9.69,1.44,0.05
1738244955.5976915,56042,0,0,,0.0,-0.6,0.37,0.65,0.28,-0.01,0.48,-0.18,-10.14,0.98,-0.66,0.0,0.0,0.0,-9.7,1.42,0.01
1738244955.6135101,56043,0,0,,0.0,-0.61,0.37,0.65,0.28,0.02,0.46,-0.17,-9.57,0.75,-1.32,0.0,0.0,0.0,-9.7,1.39,-0.06
1738244955.63329,56044,0,0,,0.0,-0.61,0.37,0.64,0.28,0.06,0.42,-0.15,-9.48,0.98,-1.78,0.0,0.0,0.0,-9.71,1.36,-0.15
1738244955.6477876,56045,0,0,,0.0,-0.61,0.37,0.64,0.28,0.04,0.49,-0.19,-9.55,0.72,-2.48,0.0,0.0,0.0,-9.71,1.34,-0.19
1738244955.6635416,56046,0,0,,0.0,-0.61,0.37,0.64,0.28,0.02,0.51,-0.21,-9.63,1.03,-1.65,0.0,0.0,0.0,-9.71,1.3,-0.29
1738244955.6833167,56047,0,0,,0.0,-0.62,0.37,0.64,0.28,0.06,0.48,-0.21,-9.42,0.7,-1.8,0.0,0.0,0.0,-9.71,1.26,-0.38
1738244955.697788,56048,0,0,,0.0,-0.62,0.37,0.63,0.28,0.08,0.5,-0.21,-9.05,0.49,-2.78,0.0,0.0,0.0,-9.71,1.24,-0.43
1738244955.7135756,56049,0,0,,0.0,-0.62,0.37,0.63,0.28,0.07,0.56,-0.23,-9.59,0.37,-2.52,0.0,0.0,0.0,-9.71,1.19,-0.54
1738244955.7333603,56050,0,0,,0.0,-0.63,0.37,0.62,0.28,0.07,0.61,-0.28,-9.92,0.54,-1.39,0.0,0.0,0.0,-9.71,1.14,-0.66
1738244955.7478216,56051,0,0,,0.0,-0.63,0.37,0.62,0.28,0.12,0.58,-0.28,-9.68,0.68,-1.43,0.0,0.0,0.0,-9.71,1.11,-0.71
1738244955.763537,56052,0,0,,0.0,-0.63,0.37,0.62,0.28,0.16,0.61,-0.3,-9.48,0.14,-2.77,0.0,0.0,0.0,-9.71,1.05,-0.83
1738244955.783339,56053,0,0,,0.0,-0.64,0.37,0.61,0.28,0.2,0.71,-0.36,-9.61,0.29,-2.87,0.0,0.0,0.0,-9.7,0.98,-0.97
1738244955.7976613,56054,0,0,,0.0,-0.64,0.38,0.61,0.28,0.29,0.74,-0.4,-10.17,0.72,-1.6,0.0,0.0,0.0,-9.7,0.94,-1.05
1738244955.8139563,56055,0,0,,0.0,-0.65,0.38,0.6,0.28,0.34,0.72,-0.41,-9.93,0.84,-3.08,0.0,0.0,0.0,-9.69,0.85,-1.19
1738244955.833389,56056,0,0,,0.0,-0.65,0.38,0.59,0.28,0.39,0.76,-0.45,-10.56,0.95,-3.62,0.0,0.0,0.0,-9.68,0.75,-1.34
1738244955.8480232,56057,0,0,,0.0,-0.66,0.38,0.59,0.28,0.26,0.85,-0.56,-10.71,-0.44,-2.56,0.0,0.0,0.0,-9.67,0.69,-1.42
1738244955.864365,56058,0,0,,0.0,-0.66,0.38,0.58,0.29,0.32,0.83,-0.55,-10.14,-0.61,-2.71,0.0,0.0,0.0,-9.65,0.58,-1.59
1738244955.8839364,56059,0,0,,0.0,-0.67,0.38,0.57,0.29,0.51,0.87,-0.57,-10.26,-0.4,-2.97,0.0,0.0,0.0,-9.63,0.46,-1.75
1738244955.8981657,56060,0,0,,0.0,-0.67,0.38,0.57,0.29,0.39,0.91,-0.62,-10.64,-0.95,-2.59,0.0,0.0,0.0,-9.62,0.39,-1.84
1738244955.9146543,56061,0,0,,0.0,-0.68,0.38,0.56,0.29,0.32,0.93,-0.68,-10.24,-0.56,-2.08,0.0,0.0,0.0,-9.59,0.25,-2.01
1738244955.933572,56062,0,0,,0.0,-0.68,0.38,0.55,0.3,0.32,0.93,-0.73,-9.99,-0.25,-2.68,0.0,0.0,0.0,-9.55,0.1,-2.19
1738244955.948225,56063,0,0,,0.0,-0.69,0.38,0.54,0.3,0.44,0.96,-0.75,-9.21,-0.23,-3.66,0.0,0.0,0.0,-9.53,0.02,-2.28
1738244955.9649045,56064,0,0,,0.0,-0.69,0.38,0.53,0.3,0.48,1.01,-0.78,-9.87,-0.26,-2.65,0.0,0.0,0.0,-9.48,-0.14,-2.47
1738244955.9836483,56065,0,0,,0.0,-0.7,0.38,0.52,0.31,0.57,1.13,-0.89,-9.58,-0.09,-2.84,0.0,0.0,0.0,-9.42,-0.34,-2.68
1738244955.9983401,56066,0,0,,0.0,-0.71,0.38,0.51,0.31,0.6,1.23,-0.95,-9.69,0.15,-2.54,0.0,0.0,0.0,-9.38,-0.44,-2.79
1738244956.0149999,56067,0,0,,0.0,-0.71,0.38,0.5,0.31,0.58,1.29,-0.98,-9.63,-0.62,-2.61,0.0,0.0,0.0,-9.3,-0.65,-3.02
1738244956.034038,56068,0,0,,0.0,-0.72,0.38,0.48,0.32,0.57,1.49,-1.01,-9.86,-0.78,-2.07,0.0,0.0,0.0,-9.19,-0.87,-3.29
1738244956.0483685,56069,0,0,,0.0,-0.73,0.38,0.47,0.32,0.55,1.69,-1.01,-9.86,-0.83,-1.78,0.0,0.0,0.0,-9.13,-0.97,-3.44
1738244956.065486,56070,0,0,,0.0,-0.74,0.38,0.46,0.32,0.55,1.8,-0.99,-10.16,0.08,-2.33,0.0,0.0,0.0,-8.98,-1.18,-3.75
1738244956.0843482,56071,0,0,,0.0,-0.75,0.39,0.44,0.32,0.57,2.01,-0.83,-11.9,-0.43,-4.8,0.0,0.0,0.0,-8.8,-1.36,-4.1
1738244956.098403,56072,0,0,,0.0,-0.75,0.39,0.42,0.32,0.58,2.41,-0.74,-13.33,0.0,-4.39,0.0,0.0,0.0,-8.69,-1.44,-4.29
1738244956.1145785,56073,0,0,,0.0,-0.77,0.39,0.4,0.31,0.51,2.61,-0.78,-13.96,0.06,-4.31,0.0,0.0,0.0,-8.44,-1.61,-4.72
1738244956.1343067,56074,0,0,,0.0,-0.78,0.39,0.38,0.31,0.17,2.66,-0.84,-11.35,-0.52,-4.97,0.0,0.0,0.0,-8.16,-1.76,-5.14
1738244956.1493044,56075,0,0,,0.0,-0.79,0.39,0.37,0.3,-0.12,2.55,-0.86,-10.64,-0.43,-5.33,0.0,0.0,0.0,-8.01,-1.82,-5.34
1738244956.1648881,56076,0,0,,0.0,-0.8,0.39,0.35,0.29,-0.22,2.48,-0.84,-10.01,-2.34,-5.6,0.0,0.0,0.0,-7.72,-1.91,-5.72
1738244956.1846793,56077,0,0,,0.0,-0.81,0.39,0.33,0.29,-0.26,2.19,-0.7,-10.63,-1.35,-4.04,0.0,0.0,0.0,-7.46,-2.0,-6.03
1738244956.1987827,56078,0,0,,0.0,-0.81,0.39,0.32,0.28,0.18,1.66,-0.55,-9.53,-0.93,-3.89,0.0,0.0,0.0,-7.35,-2.05,-6.15
1738244956.2148657,56079,0,0,,0.0,-0.82,0.39,0.31,0.28,0.18,1.38,-0.45,-8.52,-0.4,-4.37,0.0,0.0,0.0,-7.19,-2.12,-6.32
1738244956.2337213,56080,0,0,,0.0,-0.82,0.39,0.31,0.28,0.09,0.89,-0.26,-7.46,-0.17,-4.54,0.0,0.0,0.0,-7.08,-2.16,-6.42
1738244956.2488227,56081,0,0,,0.0,-0.82,0.39,0.31,0.28,-0.04,0.41,-0.05,-6.81,-0.59,-4.44,0.0,0.0,0.0,-7.06,-2.16,-6.45
1738244956.2648435,56082,0,0,,0.0,-0.82,0.39,0.31,0.28,-0.09,0.15,0.05,-5.75,-0.96,-4.24,0.0,0.0,0.0,-7.06,-2.13,-6.45
1738244956.2843232,56083,0,0,,0.0,-0.82,0.39,0.31,0.28,-0.09,-0.38,0.25,-5.3,-1.17,-4.08,0.0,0.0,0.0,-7.13,-2.08,-6.39
1738244956.3000906,56084,0,0,,0.0,-0.82,0.39,0.32,0.28,-0.11,-0.9,0.45,-5.16,-1.4,-4.08,0.0,0.0,0.0,-7.2,-2.04,-6.33
1738244956.3152378,56085,0,0,,0.0,-0.81,0.39,0.33,0.28,-0.11,-1.14,0.53,-5.16,-1.58,-4.13,0.0,0.0,0.0,-7.37,-1.95,-6.15
1738244956.3341575,56086,0,0,,0.0,-0.8,0.39,0.34,0.28,-0.09,-1.6,0.68,-5.28,-1.71,-4.12,0.0,0.0,0.0,-7.6,-1.84,-5.91
1738244956.3492126,56087,0,0,,0.0,-0.8,0.39,0.35,0.29,-0.08,-2.01,0.8,-5.28,-1.67,-4.12,0.0,0.0,0.0,-7.72,-1.77,-5.76
1738244956.3652365,56088,0,0,,0.0,-0.79,0.39,0.37,0.29,-0.08,-2.2,0.85,-5.72,-1.83,-4.19,0.0,0.0,0.0,-8.0,-1.63,-5.42
1738244956.3844917,56089,0,0,,0.0,-0.78,0.39,0.4,0.3,-0.14,-2.57,0.94,-6.14,-2.01,-4.35,0.0,0.0,0.0,-8.3,-1.46,-5.0
1738244956.3993046,56090,0,0,,0.0,-0.77,0.39,0.41,0.3,-0.13,-2.89,1.03,-6.34,-2.06,-4.57,0.0,0.0,0.0,-8.45,-1.37,-4.77
1738244956.415724,56091,0,0,,0.0,-0.75,0.39,0.43,0.31,-0.09,-3.05,1.08,-6.62,-2.32,-5.26,0.0,0.0,0.0,-8.75,-1.19,-4.25
1738244956.4343882,56092,0,0,,0.0,-0.73,0.39,0.46,0.31,0.09,-3.28,1.19,-7.15,-2.62,-5.95,0.0,0.0,0.0,-9.03,-0.99,-3.68
1738244956.4491522,56093,0,0,,0.0,-0.72,0.39,0.47,0.32,0.18,-3.37,1.11,-7.33,-2.33,-6.13,0.0,0.0,0.0,-9.15,-0.9,-3.38
1738244956.4652913,56094,0,0,,0.0,-0.7,0.39,0.5,0.33,0.13,-3.4,1.22,-7.73,-2.15,-6.62,0.0,0.0,0.0,-9.38,-0.68,-2.77
1738244956.4843633,56095,0,0,,0.0,-0.68,0.38,0.53,0.33,-0.19,-3.41,1.28,-8.01,-2.07,-7.26,0.0,0.0,0.0,-9.55,-0.43,-2.15
1738244956.4998393,56096,0,0,,0.0,-0.67,0.38,0.54,0.33,-0.53,-3.33,1.29,-8.0,-2.14,-7.47,0.0,0.0,0.0,-9.62,-0.3,-1.84
1738244956.5158215,56097,0,0,,0.0,-0.65,0.37,0.57,0.33,-0.69,-3.17,1.2,-8.32,-2.85,-7.29,0.0,0.0,0.0,-9.72,-0.05,-1.24
1738244956.5352564,56098,0,0,,0.0,-0.63,0.37,0.6,0.33,-0.67,-3.09,1.21,-8.8,-3.27,-7.15,0.0,0.0,0.0,-9.78,0.17,-0.67
1738244956.5494103,56099,0,0,,0.0,-0.62,0.37,0.61,0.33,-0.48,-2.9,1.17,-9.3,-3.22,-6.83,0.0,0.0,0.0,-9.79,0.29,-0.39
1738244956.565791,56100,0,0,,0.0,-0.6,0.36,0.63,0.33,-0.34,-2.7,1.12,-9.7,-2.66,-6.32,0.0,0.0,0.0,-9.79,0.5,0.13
1738244956.5847473,56101,0,0,,0.0,-0.58,0.36,0.65,0.33,-0.37,-2.6,1.09,-9.99,-1.66,-5.53,0.0,0.0,0.0,-9.76,0.7,0.61
1738244956.5994294,56102,0,0,,0.0,-0.58,0.35,0.66,0.33,-0.55,-2.37,1.0,-9.98,-1.43,-5.45,0.0,0.0,0.0,-9.73,0.79,0.84
1738244956.6157708,56103,0,0,,0.0,-0.56,0.35,0.67,0.33,-0.8,-2.11,0.9,-10.12,-1.35,-5.12,0.0,0.0,0.0,-9.67,0.95,1.26
1738244956.6349123,56104,0,0,,0.0,-0.55,0.34,0.69,0.33,-0.88,-1.96,0.85,-10.3,-1.51,-4.89,0.0,0.0,0.0,-9.6,1.08,1.63
1738244956.6495838,56105,0,0,,0.0,-0.54,0.34,0.7,0.32,-0.87,-1.63,0.75,-10.36,-1.82,-4.69,0.0,0.0,0.0,-9.57,1.14,1.79
1738244956.666334,56106,0,0,,0.0,-0.53,0.33,0.71,0.32,-0.62,-1.3,0.64,-10.32,-1.76,-4.44,0.0,0.0,0.0,-9.5,1.23,2.06
1738244956.684894,56107,0,0,,0.0,-0.53,0.33,0.72,0.32,-0.48,-1.14,0.59,-10.06,-1.61,-4.42,0.0,0.0,0.0,-9.44,1.32,2.27
1738244956.69971,56108,0,0,,0.0,-0.52,0.33,0.72,0.32,-0.23,-0.81,0.51,-9.98,-1.66,-4.62,0.0,0.0,0.0,-9.42,1.36,2.34
1738244956.7160602,56109,0,0,,0.0,-0.52,0.33,0.72,0.32,-0.1,-0.45,0.39,-9.43,-2.06,-5.53,0.0,0.0,0.0,-9.38,1.43,2.45
1738244956.7353768,56110,0,0,,0.0,-0.52,0.33,0.73,0.31,-0.13,-0.25,0.3,-9.59,-1.69,-3.94,0.0,0.0,0.0,-9.37,1.47,2.48
1738244956.7494004,56111,0,0,,0.0,-0.52,0.33,0.73,0.31,-0.05,0.19,0.11,-10.83,-1.09,-1.46,0.0,0.0,0.0,-9.37,1.48,2.46
1738244956.7657292,56112,0,0,,0.0,-0.52,0.33,0.72,0.31,0.51,0.3,0.05,-15.29,5.67,5.56,0.0,0.0,0.0,-9.38,1.51,2.39
1738244956.7851386,56113,0,0,,0.0,-0.52,0.33,0.72,0.31,0.25,0.12,0.14,-8.56,1.65,-1.73,0.0,0.0,0.0,-9.38,1.53,2.37
1738244956.7995706,56114,0,0,,0.0,-0.52,0.33,0.73,0.31,-0.87,0.2,0.11,-8.69,-0.31,-1.73,0.0,0.0,0.0,-9.39,1.52,2.37
1738244956.8159313,56115,0,0,,0.0,-0.53,0.32,0.73,0.3,-0.94,0.36,0.04,-10.9,-2.45,0.88,0.0,0.0,0.0,-9.4,1.49,2.32
1738244956.8350956,56116,0,0,,0.0,-0.53,0.32,0.72,0.3,-0.38,0.44,0.01,-9.64,-1.11,0.72,0.0,0.0,0.0,-9.42,1.48,2.25
1738244956.8498824,56117,0,0,,0.0,-0.53,0.32,0.72,0.3,0.01,0.34,0.09,-9.17,-0.17,0.38,0.0,0.0,0.0,-9.43,1.49,2.22
1738244956.8656993,56118,0,0,,0.0,-0.53,0.33,0.72,0.3,0.13,0.33,0.15,-9.65,1.66,0.59,0.0,0.0,0.0,-9.44,1.52,2.16
1738244956.8849714,56119,0,0,,0.0,-0.53,0.33,0.72,0.3,0.1,0.34,0.19,-9.87,1.91,0.97,0.0,0.0,0.0,-9.45,1.56,2.09
1738244956.8993773,56120,0,0,,0.0,-0.53,0.33,0.72,0.29,0.09,0.28,0.22,-9.6,1.67,0.35,0.0,0.0,0.0,-9.45,1.58,2.06
1738244956.91599,56121,0,0,,0.0,-0.53,0.33,0.72,0.29,0.19,0.19,0.26,-9.6,0.83,-0.9,0.0,0.0,0.0,-9.45,1.64,2.02
1738244956.9350662,56122,0,0,,0.0,-0.53,0.34,0.72,0.29,0.23,0.19,0.26,-10.43,0.04,0.36,0.0,0.0,0.0,-9.45,1.69,1.98
1738244956.949452,56123,0,0,,0.0,-0.53,0.34,0.72,0.29,0.4,0.15,0.26,-10.29,0.4,0.63,0.0,0.0,0.0,-9.45,1.73,1.96
1738244956.96647,56124,0,0,,0.0,-0.53,0.34,0.72,0.29,0.32,0.1,0.31,-9.43,0.77,-0.1,0.0,0.0,0.0,-9.44,1.79,1.92
1738244956.9857688,56125,0,0,,0.0,-0.53,0.35,0.72,0.29,0.24,0.13,0.32,-9.62,1.27,0.68,0.0,0.0,0.0,-9.44,1.86,1.89
1738244956.999266,56126,0,0,,0.0,-0.53,0.35,0.72,0.29,-0.01,0.28,0.28,-9.41,1.88,1.0,0.0,0.0,0.0,-9.44,1.88,1.86
1738244957.0167878,56127,0,0,,0.0,-0.53,0.35,0.72,0.28,-0.2,0.35,0.24,-9.01,2.15,0.64,0.0,0.0,0.0,-9.44,1.92,1.81
1738244957.0355616,56128,0,0,,0.0,-0.54,0.35,0.71,0.28,-0.27,0.38,0.21,-8.92,2.6,-0.71,0.0,0.0,0.0,-9.44,1.95,1.74
1738244957.0499313,56129,0,0,,0.0,-0.54,0.35,0.71,0.28,-0.32,0.46,0.12,-9.52,2.22,0.22,0.0,0.0,0.0,-9.45,1.95,1.71
1738244957.0663111,56130,0,0,,0.0,-0.54,0.35,0.71,0.28,-0.23,0.47,0.04,-10.09,1.01,0.62,0.0,0.0,0.0,-9.46,1.96,1.63
1738244957.0859566,56131,0,0,,0.0,-0.55,0.35,0.71,0.27,-0.08,0.44,0.03,-10.01,0.64,-0.27,0.0,0.0,0.0,-9.48,1.96,1.55
1738244957.1004398,56132,0,0,,0.0,-0.55,0.35,0.71,0.27,0.14,0.37,0.03,-9.91,0.82,-0.73,0.0,0.0,0.0,-9.48,1.97,1.52
1738244957.116744,56133,0,0,,0.0,-0.55,0.35,0.71,0.27,0.19,0.39,-0.02,-9.91,1.31,-1.12,0.0,0.0,0.0,-9.49,1.97,1.44
1738244957.135404,56134,0,0,,0.0,-0.55,0.36,0.7,0.27,0.19,0.4,-0.04,-9.85,1.65,-0.27,0.0,0.0,0.0,-9.5,1.97,1.36
1738244957.1503088,56135,0,0,,0.0,-0.55,0.36,0.7,0.27,0.2,0.32,-0.04,-9.72,1.19,-0.31,0.0,0.0,0.0,-9.51,1.97,1.33
1738244957.1666675,56136,0,0,,0.0,-0.55,0.36,0.7,0.27,0.23,0.33,-0.08,-9.19,1.31,-1.32,0.0,0.0,0.0,-9.52,1.96,1.26
1738244957.1858222,56137,0,0,,0.0,-0.56,0.36,0.7,0.27,0.24,0.36,-0.12,-9.65,1.27,-0.87,0.0,0.0,0.0,-9.53,1.94,1.19
1738244957.200427,56138,0,0,,0.0,-0.56,0.36,0.7,0.27,0.24,0.34,-0.13,-10.17,1.38,0.26,0.0,0.0,0.0,-9.54,1.93,1.15
1738244957.2173476,56139,0,0,,0.0,-0.56,0.36,0.69,0.28,0.19,0.23,-0.08,-9.88,0.68,-0.66,0.0,0.0,0.0,-9.55,1.92,1.09
1738244957.2357125,56140,0,0,,0.0,-0.56,0.37,0.69,0.28,0.21,0.2,-0.07,-9.7,0.52,-1.63,0.0,0.0,0.0,-9.55,1.91,1.05
1738244957.2501912,56141,0,0,,0.0,-0.56,0.37,0.69,0.28,0.22,0.21,-0.06,-9.79,0.97,-1.21,0.0,0.0,0.0,-9.56,1.91,1.03
1738244957.2666924,56142,0,0,,0.0,-0.56,0.37,0.69,0.28,0.21,0.15,-0.02,-9.91,1.42,0.1,0.0,0.0,0.0,-9.56,1.91,0.99
1738244957.2853384,56143,0,0,,0.0,-0.56,0.37,0.69,0.28,0.17,0.11,-0.01,-9.1,1.27,-1.23,0.0,0.0,0.0,-9.57,1.91,0.96
1738244957.3001058,56144,0,0,,0.0,-0.56,0.37,0.69,0.28,0.17,0.19,-0.05,-9.27,1.04,-1.13,0.0,0.0,0.0,-9.57,1.9,0.94
1738244957.316563,56145,0,0,,0.0,-0.56,0.37,0.68,0.28,0.14,0.28,-0.1,-9.81,1.45,-0.08,0.0,0.0,0.0,-9.58,1.89,0.88
1738244957.3358169,56146,0,0,,0.0,-0.56,0.37,0.68,0.28,0.13,0.29,-0.11,-9.39,1.6,-0.54,0.0,0.0,0.0,-9.58,1.87,0.82
1738244957.350594,56147,0,0,,0.0,-0.57,0.37,0.68,0.28,0.07,0.28,-0.11,-9.13,1.55,-1.5,0.0,0.0,0.0,-9.59,1.86,0.8
1738244957.3672338,56148,0,0,,0.0,-0.57,0.37,0.68,0.28,-0.05,0.37,-0.17,-9.75,1.33,-0.8,0.0,0.0,0.0,-9.6,1.83,0.73
1738244957.385693,56149,0,0,,0.0,-0.57,0.37,0.68,0.28,-0.1,0.39,-0.18,-10.07,1.43,-0.05,0.0,0.0,0.0,-9.61,1.8,0.67
1738244957.4003594,56150,0,0,,0.0,-0.57,0.37,0.67,0.28,-0.23,0.37,-0.19,-9.62,1.19,-0.97,0.0,0.0,0.0,-9.62,1.78,0.63
1738244957.417619,56151,0,0,,0.0,-0.58,0.37,0.67,0.28,-0.29,0.38,-0.21,-9.19,0.73,-1.96,0.0,0.0,0.0,-9.63,1.73,0.58
1738244957.4363248,56152,0,0,,0.0,-0.58,0.37,0.67,0.27,-0.31,0.42,-0.23,-9.56,1.21,-1.46,0.0,0.0,0.0,-9.64,1.69,0.5
1738244957.4505146,56153,0,0,,0.0,-0.59,0.37,0.67,0.27,-0.29,0.46,-0.23,-9.71,1.02,-1.17,0.0,0.0,0.0,-9.65,1.66,0.46
1738244957.4682665,56154,0,0,,0.0,-0.59,0.36,0.67,0.27,-0.2,0.41,-0.2,-9.61,0.78,-0.93,0.0,0.0,0.0,-9.66,1.62,0.39
1738244957.4861474,56155,0,0,,0.0,-0.59,0.36,0.67,0.27,-0.11,0.44,-0.18,-9.61,0.54,-1.36,0.0,0.0,0.0,-9.67,1.59,0.32
1738244957.501542,56156,0,0,,0.0,-0.59,0.36,0.66,0.27,-0.07,0.47,-0.18,-9.66,0.91,-1.91,0.0,0.0,0.0,-9.67,1.57,0.27
1738244957.518777,56157,0,0,,0.0,-0.6,0.36,0.66,0.27,0.02,0.47,-0.18,-10.17,0.96,-0.32,0.0,0.0,0.0,-9.68,1.54,0.19
1738244957.5367527,56158,0,0,,0.0,-0.6,0.36,0.66,0.27,0.04,0.43,-0.09,-9.71,0.94,-0.94,0.0,0.0,0.0,-9.68,1.51,0.1
1738244957.551319,56159,0,0,,0.0,-0.6,0.36,0.66,0.27,0.04,0.45,-0.09,-9.14,0.91,-2.46,0.0,0.0,0.0,-9.68,1.5,0.06
1738244957.5689018,56160,0,0,,0.0,-0.61,0.36,0.65,0.27,0.05,0.51,-0.21,-9.64,0.8,-2.16,0.0,0.0,0.0,-9.69,1.47,-0.02
1738244957.586429,56161,0,0,,0.0,-0.61,0.37,0.65,0.27,0.11,0.47,-0.24,-9.94,1.14,-1.48,0.0,0.0,0.0,-9.7,1.43,-0.12
1738244957.6016152,56162,0,0,,0.0,-0.61,0.37,0.65,0.27,0.14,0.45,-0.23,-9.56,0.59,-1.62,0.0,0.0,0.0,-9.7,1.41,-0.16
1738244957.619034,56163,0,0,,0.0,-0.62,0.37,0.64,0.27,0.19,0.5,-0.26,-9.4,0.33,-2.32,0.0,0.0,0.0,-9.7,1.36,-0.26
1738244957.636716,56164,0,0,,0.0,-0.62,0.37,0.64,0.27,0.21,0.52,-0.3,-9.87,0.65,-1.53,0.0,0.0,0.0,-9.71,1.3,-0.36
1738244957.651231,56165,0,0,,0.0,-0.62,0.37,0.64,0.27,0.27,0.51,-0.31,-9.94,1.22,-1.33,0.0,0.0,0.0,-9.71,1.27,-0.41
1738244957.66928,56166,0,0,,0.0,-0.62,0.37,0.63,0.27,0.35,0.53,-0.32,-9.33,0.84,-2.64,0.0,0.0,0.0,-9.71,1.21,-0.52
1738244957.6871219,56167,0,0,,0.0,-0.63,0.37,0.63,0.28,0.4,0.63,-0.38,-9.71,0.68,-1.87,0.0,0.0,0.0,-9.71,1.14,-0.64
1738244957.701427,56168,0,0,,0.0,-0.63,0.37,0.62,0.28,0.41,0.66,-0.41,-9.57,0.69,-1.97,0.0,0.0,0.0,-9.71,1.1,-0.7
1738244957.7188606,56169,0,0,,0.0,-0.64,0.37,0.61,0.28,0.45,0.7,-0.44,-9.38,0.98,-1.98,0.0,0.0,0.0,-9.71,1.01,-0.84
1738244957.7371876,56170,0,0,,0.0,-0.64,0.38,0.61,0.28,0.48,0.78,-0.47,-9.52,0.35,-2.93,0.0,0.0,0.0,-9.71,0.91,-1.0
1738244957.752148,56171,0,0,,0.0,-0.64,0.38,0.6,0.28,0.44,0.86,-0.53,-10.48,0.97,-2.67,0.0,0.0,0.0,-9.7,0.86,-1.08
1738244957.769488,56172,0,0,,0.0,-0.65,0.38,0.59,0.29,0.27,0.96,-0.63,-11.69,0.05,-1.47,0.0,0.0,0.0,-9.69,0.74,-1.26
1738244957.7869945,56173,0,0,,0.0,-0.66,0.38,0.59,0.29,0.4,0.93,-0.62,-10.53,-0.84,-2.52,0.0,0.0,0.0,-9.67,0.61,-1.44
1738244957.8020048,56174,0,0,,0.0,-0.66,0.38,0.58,0.29,0.49,0.96,-0.63,-10.99,-0.79,-1.97,0.0,0.0,0.0,-9.66,0.54,-1.53
1738244957.8197443,56175,0,0,,0.0,-0.67,0.38,0.57,0.29,0.35,1.02,-0.72,-11.03,-0.76,-3.04,0.0,0.0,0.0,-9.64,0.4,-1.72
1738244957.8380752,56176,0,0,,0.0,-0.67,0.38,0.56,0.3,0.07,1.01,-0.82,-10.56,-0.84,-2.54,0.0,0.0,0.0,-9.61,0.25,-1.92
1738244957.8531766,56177,0,0,,0.0,-0.68,0.38,0.56,0.3,0.05,0.99,-0.84,-10.16,-1.03,-2.74,0.0,0.0,0.0,-9.59,0.17,-2.01
1738244957.8710358,56178,0,0,,0.0,-0.69,0.37,0.55,0.3,0.24,1.02,-0.87,-9.66,-0.87,-3.53,0.0,0.0,0.0,-9.55,0.0,-2.19
1738244957.8885632,56179,0,0,,0.0,-0.69,0.37,0.54,0.3,0.47,1.13,-0.94,-9.55,0.03,-2.86,0.0,0.0,0.0,-9.5,-0.18,-2.4
1738244957.903829,56180,0,0,,0.0,-0.7,0.37,0.53,0.3,0.51,1.2,-0.99,-9.62,0.25,-2.2,0.0,0.0,0.0,-9.47,-0.28,-2.51
1738244957.9216304,56181,0,0,,0.0,-0.71,0.37,0.52,0.31,0.53,1.3,-1.01,-9.42,0.22,-2.26,0.0,0.0,0.0,-9.4,-0.49,-2.74
1738244957.940216,56182,0,0,,0.0,-0.72,0.37,0.5,0.31,0.58,1.49,-1.03,-9.42,-0.45,-3.02,0.0,0.0,0.0,-9.31,-0.71,-2.99
1738244957.9549,56183,0,0,,0.0,-0.73,0.37,0.48,0.31,0.64,1.61,-1.01,-9.91,-0.6,-2.68,0.0,0.0,0.0,-9.25,-0.82,-3.13
1738244957.9734066,56184,0,0,,0.0,-0.73,0.38,0.47,0.32,0.61,1.81,-0.99,-10.26,-0.3,-1.92,0.0,0.0,0.0,-9.12,-1.04,-3.43
1738244957.9909837,56185,0,0,,0.0,-0.74,0.38,0.46,0.32,0.46,2.03,-0.85,-10.84,1.13,-3.35,0.0,0.0,0.0,-8.96,-1.23,-3.76
1738244958.006096,56186,0,0,,0.0,-0.75,0.38,0.44,0.31,0.39,2.2,-0.75,-11.1,0.73,-4.07,0.0,0.0,0.0,-8.77,-1.38,-4.15
1738244958.0237,56187,0,0,,0.0,-0.76,0.38,0.42,0.31,0.3,2.57,-0.71,-13.12,0.24,-3.38,0.0,0.0,0.0,-8.65,-1.46,-4.36
1738244958.042879,56188,0,0,,0.0,-0.77,0.39,0.4,0.31,0.18,2.59,-0.72,-13.07,-0.18,-3.2,0.0,0.0,0.0,-8.4,-1.59,-4.79
1738244958.0578482,56189,0,0,,0.0,-0.78,0.38,0.38,0.3,0.11,2.41,-0.71,-10.99,-0.18,-3.64,0.0,0.0,0.0,-8.14,-1.72,-5.18
1738244958.0767713,56190,0,0,,0.0,-0.8,0.39,0.36,0.29,0.04,2.26,-0.68,-10.52,-0.24,-4.2,0.0,0.0,0.0,-7.89,-1.82,-5.52
1738244958.093841,56191,0,0,,0.0,-0.8,0.39,0.35,0.29,-0.23,1.89,-0.53,-9.31,-1.41,-5.68,0.0,0.0,0.0,-7.78,-1.85,-5.66
1738244958.1091213,56192,0,0,,0.0,-0.81,0.38,0.34,0.28,-0.16,1.54,-0.44,-9.2,-1.77,-5.14,0.0,0.0,0.0,-7.58,-1.89,-5.91
1738244958.127153,56193,0,0,,0.0,-0.81,0.38,0.33,0.28,0.04,1.33,-0.4,-8.46,-0.57,-4.56,0.0,0.0,0.0,-7.43,-1.95,-6.09
1738244958.144617,56194,0,0,,0.0,-0.82,0.38,0.33,0.28,-0.11,0.88,-0.25,-8.35,-0.4,-4.51,0.0,0.0,0.0,-7.37,-1.96,-6.15
1738244958.1598787,56195,0,0,,0.0,-0.82,0.38,0.33,0.27,-0.46,0.42,-0.07,-7.12,-0.72,-5.05,0.0,0.0,0.0,-7.3,-1.93,-6.25
1738244958.1783266,56196,0,0,,0.0,-0.82,0.38,0.33,0.27,-0.59,0.02,0.04,-6.4,-0.92,-5.34,0.0,0.0,0.0,-7.29,-1.86,-6.28
1738244958.1949773,56197,0,0,,0.0,-0.82,0.38,0.33,0.26,-0.61,-0.16,0.08,-5.89,-1.52,-5.59,0.0,0.0,0.0,-7.32,-1.77,-6.27
1738244958.2110722,56198,0,0,,0.0,-0.82,0.38,0.34,0.26,-0.46,-0.53,0.16,-5.51,-1.83,-5.46,0.0,0.0,0.0,-7.36,-1.73,-6.24
1738244958.2292624,56199,0,0,,0.0,-0.82,0.38,0.34,0.26,-0.25,-0.92,0.26,-5.42,-2.0,-5.03,0.0,0.0,0.0,-7.46,-1.66,-6.13
1738244958.2459252,56200,0,0,,0.0,-0.81,0.38,0.35,0.27,-0.14,-1.12,0.31,-5.35,-1.92,-4.82,0.0,0.0,0.0,-7.62,-1.6,-5.95
1738244958.2608042,56201,0,0,,0.0,-0.81,0.38,0.36,0.27,0.01,-1.52,0.42,-5.19,-1.64,-4.6,0.0,0.0,0.0,-7.71,-1.57,-5.84
1738244958.279592,56202,0,0,,0.0,-0.8,0.38,0.38,0.27,0.03,-1.9,0.51,-5.18,-1.75,-4.52,0.0,0.0,0.0,-7.92,-1.5,-5.57
1738244958.2963908,56203,0,0,,0.0,-0.79,0.38,0.39,0.28,0.03,-2.06,0.56,-5.13,-1.85,-4.5,0.0,0.0,0.0,-8.16,-1.41,-5.23
1738244958.3112218,56204,0,0,,0.0,-0.79,0.37,0.4,0.28,0.01,-2.4,0.68,-5.32,-2.06,-4.26,0.0,0.0,0.0,-8.29,-1.36,-5.04
1738244958.3302746,56205,0,0,,0.0,-0.77,0.37,0.43,0.29,0.07,-2.7,0.82,-5.56,-2.35,-4.56,0.0,0.0,0.0,-8.56,-1.23,-4.61
1738244958.3463275,56206,0,0,,0.0,-0.76,0.37,0.45,0.3,0.14,-2.84,0.9,-5.68,-2.44,-4.78,0.0,0.0,0.0,-8.82,-1.09,-4.12
1738244958.3621552,56207,0,0,,0.0,-0.75,0.37,0.46,0.3,0.28,-3.02,1.05,-6.01,-2.74,-4.98,0.0,0.0,0.0,-8.95,-1.01,-3.86
1738244958.3802102,56208,0,0,,0.0,-0.73,0.37,0.49,0.31,0.39,-3.09,1.19,-6.78,-2.97,-5.47,0.0,0.0,0.0,-9.19,-0.83,-3.31
1738244958.3968499,56209,0,0,,0.0,-0.71,0.38,0.51,0.32,0.38,-3.1,1.24,-7.5,-2.69,-5.8,0.0,0.0,0.0,-9.39,-0.63,-2.75
1738244958.411362,56210,0,0,,0.0,-0.7,0.38,0.52,0.32,0.23,-3.09,1.22,-7.76,-2.66,-6.01,0.0,0.0,0.0,-9.47,-0.52,-2.47
1738244958.4300342,56211,0,0,,0.0,-0.68,0.37,0.55,0.32,-0.1,-3.05,1.27,-8.13,-2.44,-6.49,0.0,0.0,0.0,-9.61,-0.29,-1.9
1738244958.4467316,56212,0,0,,0.0,-0.66,0.37,0.57,0.33,-0.29,-3.0,1.24,-8.43,-2.4,-6.64,0.0,0.0,0.0,-9.71,-0.05,-1.34
1738244958.461665,56213,0,0,,0.0,-0.65,0.37,0.58,0.33,-0.63,-2.89,1.14,-8.78,-2.63,-6.65,0.0,0.0,0.0,-9.74,0.05,-1.07
1738244958.4809983,56214,0,0,,0.0,-0.63,0.36,0.61,0.33,-0.81,-2.78,1.02,-9.29,-2.51,-6.49,0.0,0.0,0.0,-9.78,0.26,-0.54
1738244958.4967852,56215,0,0,,0.0,-0.61,0.35,0.63,0.32,-0.85,-2.72,0.96,-9.89,-2.24,-6.2,0.0,0.0,0.0,-9.79,0.45,-0.02
1738244958.512114,56216,0,0,,0.0,-0.61,0.35,0.64,0.32,-0.81,-2.61,0.86,-10.44,-1.71,-6.01,0.0,0.0,0.0,-9.78,0.53,0.22
1738244958.5312824,56217,0,0,,0.0,-0.59,0.34,0.66,0.32,-0.7,-2.45,0.83,-10.81,-1.15,-5.8,0.0,0.0,0.0,-9.75,0.68,0.7
1738244958.5473332,56218,0,0,,0.0,-0.57,0.34,0.67,0.32,-0.62,-2.35,0.83,-10.59,-0.63,-5.45,0.0,0.0,0.0,-9.7,0.82,1.14
1738244958.5617623,56219,0,0,,0.0,-0.57,0.33,0.68,0.32,-0.45,-2.09,0.84,-10.49,-0.64,-5.33,0.0,0.0,0.0,-9.67,0.9,1.34
1738244958.581602,56220,0,0,,0.0,-0.55,0.33,0.7,0.32,-0.24,-1.79,0.79,-10.65,-0.96,-5.09,0.0,0.0,0.0,-9.6,1.04,1.7
1738244958.59704,56221,0,0,,0.0,-0.54,0.33,0.71,0.32,-0.15,-1.62,0.74,-10.72,-1.18,-5.03,0.0,0.0,0.0,-9.53,1.17,1.98
1738244958.6120968,56222,0,0,,0.0,-0.53,0.33,0.71,0.32,-0.04,-1.26,0.6,-10.43,-1.05,-5.07,0.0,0.0,0.0,-9.49,1.22,2.1
1738244958.631789,56223,0,0,,0.0,-0.53,0.33,0.72,0.32,-0.08,-0.86,0.44,-9.76,-1.02,-4.97,0.0,0.0,0.0,-9.44,1.31,2.28
1738244958.6474183,56224,0,0,,0.0,-0.52,0.32,0.72,0.32,-0.16,-0.65,0.37,-8.85,-1.34,-5.33,0.0,0.0,0.0,-9.41,1.36,2.38
1738244958.662086,56225,0,0,,0.0,-0.52,0.32,0.72,0.31,-0.46,-0.23,0.19,-8.66,-1.63,-5.24,0.0,0.0,0.0,-9.4,1.36,2.41
1738244958.6811912,56226,0,0,,0.0,-0.52,0.32,0.73,0.31,-0.64,0.11,0.05,-9.34,-0.8,-2.37,0.0,0.0,0.0,-9.4,1.35,2.42
1738244958.6975265,56227,0,0,,0.0,-0.53,0.32,0.73,0.31,-0.5,0.24,0.03,-12.57,-0.23,4.93,0.0,0.0,0.0,-9.41,1.34,2.38
1738244958.7121706,56228,0,0,,0.0,-0.53,0.32,0.73,0.31,0.13,0.12,0.05,-14.41,2.43,6.79,0.0,0.0,0.0,-9.41,1.34,2.37
1738244958.7317245,56229,0,0,,0.0,-0.53,0.32,0.73,0.31,-0.53,-0.03,0.18,-10.17,2.5,-1.16,0.0,0.0,0.0,-9.41,1.36,2.39
1738244958.747715,56230,0,0,,0.0,-0.53,0.31,0.73,0.3,-0.89,0.1,0.15,-10.26,-1.55,0.03,0.0,0.0,0.0,-9.41,1.34,2.39
1738244958.7621467,56231,0,0,,0.0,-0.53,0.31,0.73,0.3,-0.84,0.23,0.08,-10.5,-2.32,0.19,0.0,0.0,0.0,-9.41,1.33,2.38
1738244958.7820778,56232,0,0,,0.0,-0.53,0.31,0.73,0.29,-0.2,0.28,0.1,-10.36,-2.77,-0.09,0.0,0.0,0.0,-9.42,1.33,2.34
1738244958.7977207,56233,0,0,,0.0,-0.54,0.31,0.73,0.29,0.05,0.3,0.1,-9.94,0.34,2.07,0.0,0.0,0.0,-9.43,1.36,2.28
1738244958.8126605,56234,0,0,,0.0,-0.54,0.31,0.73,0.29,0.28,0.21,0.22,-9.45,0.85,1.73,0.0,0.0,0.0,-9.43,1.39,2.26
1738244958.8323028,56235,0,0,,0.0,-0.54,0.32,0.73,0.29,0.22,0.3,0.24,-8.97,1.26,-0.46,0.0,0.0,0.0,-9.44,1.44,2.2
1738244958.847428,56236,0,0,,0.0,-0.54,0.32,0.72,0.29,0.19,0.37,0.2,-9.45,1.53,0.12,0.0,0.0,0.0,-9.45,1.49,2.13
1738244958.862378,56237,0,0,,0.0,-0.54,0.32,0.72,0.29,0.3,0.4,0.18,-9.91,1.5,1.2,0.0,0.0,0.0,-9.46,1.51,2.09
1738244958.8820295,56238,0,0,,0.0,-0.54,0.33,0.72,0.29,0.41,0.31,0.21,-9.63,1.06,0.31,0.0,0.0,0.0,-9.46,1.56,2.01
1738244958.8977265,56239,0,0,,0.0,-0.54,0.33,0.72,0.29,0.45,0.3,0.21,-9.85,0.35,-0.35,0.0,0.0,0.0,-9.47,1.62,1.94
1738244958.912558,56240,0,0,,0.0,-0.54,0.34,0.72,0.29,0.47,0.36,0.19,-9.99,0.58,-0.22,0.0,0.0,0.0,-9.47,1.64,1.9
1738244958.9319482,56241,0,0,,0.0,-0.54,0.34,0.71,0.29,0.34,0.33,0.22,-9.91,1.15,0.31,0.0,0.0,0.0,-9.48,1.7,1.83
1738244958.9475996,56242,0,0,,0.0,-0.54,0.34,0.71,0.29,0.18,0.28,0.25,-9.73,1.22,-0.44,0.0,0.0,0.0,-9.48,1.75,1.77
1738244958.9626791,56243,0,0,,0.0,-0.54,0.34,0.71,0.29,-0.13,0.28,0.26,-9.96,1.07,-0.61,0.0,0.0,0.0,-9.48,1.77,1.75
1738244958.9829204,56244,0,0,,0.0,-0.54,0.34,0.71,0.28,-0.29,0.3,0.2,-9.95,1.07,-0.57,0.0,0.0,0.0,-9.48,1.8,1.7
1738244958.9979284,56245,0,0,,0.0,-0.54,0.34,0.71,0.28,-0.28,0.26,0.2,-9.64,1.06,-0.02,0.0,0.0,0.0,-9.48,1.83,1.67
1738244959.0126219,56246,0,0,,0.0,-0.55,0.34,0.71,0.28,-0.2,0.23,0.19,-9.66,1.11,0.56,0.0,0.0,0.0,-9.48,1.84,1.65
1738244959.0327024,56247,0,0,,0.0,-0.55,0.34,0.71,0.27,-0.1,0.36,0.08,-9.36,1.99,0.04,0.0,0.0,0.0,-9.49,1.86,1.59
1738244959.0477006,56248,0,0,,0.0,-0.55,0.35,0.71,0.27,-0.05,0.42,0.03,-9.85,1.74,0.85,0.0,0.0,0.0,-9.5,1.86,1.51
1738244959.0636559,56249,0,0,,0.0,-0.55,0.35,0.71,0.27,0.01,0.45,-0.04,-9.73,1.99,0.55,0.0,0.0,0.0,-9.51,1.86,1.47
1738244959.0834591,56250,0,0,,0.0,-0.56,0.35,0.71,0.27,0.14,0.48,-0.11,-9.28,1.38,-1.04,0.0,0.0,0.0,-9.53,1.84,1.38
1738244959.0982554,56251,0,0,,0.0,-0.56,0.35,0.7,0.27,0.2,0.55,-0.17,-9.7,1.23,-0.9,0.0,0.0,0.0,-9.54,1.82,1.28
1738244959.114122,56252,0,0,,0.0,-0.56,0.35,0.7,0.27,0.2,0.55,-0.18,-10.09,1.2,0.1,0.0,0.0,0.0,-9.55,1.81,1.22
1738244959.1340892,56253,0,0,,0.0,-0.56,0.35,0.7,0.27,0.15,0.48,-0.16,-9.56,1.18,-0.77,0.0,0.0,0.0,-9.57,1.78,1.12
1738244959.1486185,56254,0,0,,0.0,-0.57,0.35,0.69,0.27,0.08,0.49,-0.17,-9.34,0.86,-1.75,0.0,0.0,0.0,-9.59,1.75,1.03
1738244959.164663,56255,0,0,,0.0,-0.57,0.35,0.69,0.27,0.04,0.51,-0.19,-9.87,1.0,-0.83,0.0,0.0,0.0,-9.6,1.73,0.98
1738244959.184384,56256,0,0,,0.0,-0.57,0.35,0.69,0.27,-0.01,0.46,-0.19,-10.21,1.17,-0.17,0.0,0.0,0.0,-9.61,1.7,0.89
1738244959.1988177,56257,0,0,,0.0,-0.58,0.35,0.68,0.27,-0.03,0.36,-0.15,-9.87,0.76,-0.38,0.0,0.0,0.0,-9.62,1.67,0.82
1738244959.2150135,56258,0,0,,0.0,-0.58,0.35,0.68,0.27,-0.02,0.37,-0.14,-9.31,0.56,-1.8,0.0,0.0,0.0,-9.63,1.66,0.79
1738244959.2349544,56259,0,0,,0.0,-0.58,0.35,0.68,0.27,-0.05,0.42,-0.16,-9.64,0.93,-1.45,0.0,0.0,0.0,-9.64,1.63,0.71
1738244959.2494612,56260,0,0,,0.0,-0.59,0.35,0.68,0.27,-0.03,0.38,-0.12,-9.77,1.17,-0.81,0.0,0.0,0.0,-9.65,1.6,0.64
1738244959.2662795,56261,0,0,,0.0,-0.59,0.35,0.68,0.27,-0.03,0.37,-0.09,-9.75,0.72,-0.51,0.0,0.0,0.0,-9.65,1.59,0.61
1738244959.2854474,56262,0,0,,0.0,-0.59,0.35,0.67,0.27,0.02,0.43,-0.07,-9.66,0.84,-1.05,0.0,0.0,0.0,-9.66,1.58,0.53
1738244959.299917,56263,0,0,,0.0,-0.59,0.35,0.67,0.27,0.05,0.46,-0.07,-9.75,1.04,-1.39,0.0,0.0,0.0,-9.67,1.56,0.44
1738244959.3166857,56264,0,0,,0.0,-0.6,0.36,0.67,0.27,0.09,0.44,-0.09,-9.75,1.32,-1.25,0.0,0.0,0.0,-9.67,1.55,0.36
1738244959.3352377,56265,0,0,,0.0,-0.6,0.36,0.67,0.27,0.12,0.41,-0.09,-9.7,0.98,-1.29,0.0,0.0,0.0,-9.67,1.54,0.32
1738244959.350513,56266,0,0,,0.0,-0.6,0.36,0.66,0.27,0.1,0.48,-0.16,-9.68,0.83,-2.13,0.0,0.0,0.0,-9.68,1.51,0.23
1738244959.366544,56267,0,0,,0.0,-0.6,0.36,0.66,0.27,0.08,0.48,-0.18,-9.69,0.63,-1.8,0.0,0.0,0.0,-9.69,1.48,0.14
1738244959.3855667,56268,0,0,,0.0,-0.61,0.36,0.66,0.27,0.1,0.41,-0.16,-9.51,0.71,-1.58,0.0,0.0,0.0,-9.69,1.46,0.1
1738244959.4000745,56269,0,0,,0.0,-0.61,0.36,0.66,0.27,0.12,0.43,-0.17,-9.07,0.51,-2.68,0.0,0.0,0.0,-9.7,1.43,0.02
1738244959.4161596,56270,0,0,,0.0,-0.61,0.36,0.65,0.27,0.14,0.48,-0.19,-9.6,0.71,-2.29,0.0,0.0,0.0,-9.7,1.4,-0.07
1738244959.4351363,56271,0,0,,0.0,-0.61,0.36,0.65,0.27,0.16,0.49,-0.2,-9.85,0.85,-1.03,0.0,0.0,0.0,-9.7,1.38,-0.12
1738244959.4501133,56272,0,0,,0.0,-0.62,0.36,0.65,0.27,0.17,0.45,-0.18,-9.67,0.83,-1.24,0.0,0.0,0.0,-9.71,1.34,-0.2
1738244959.4671564,56273,0,0,,0.0,-0.62,0.36,0.64,0.27,0.14,0.46,-0.19,-9.2,0.74,-2.74,0.0,0.0,0.0,-9.71,1.31,-0.3
1738244959.485552,56274,0,0,,0.0,-0.62,0.36,0.64,0.27,0.1,0.52,-0.22,-9.81,0.61,-2.04,0.0,0.0,0.0,-9.71,1.29,-0.35
1738244959.5002983,56275,0,0,,0.0,-0.62,0.36,0.64,0.27,0.12,0.5,-0.22,-9.84,1.03,-1.49,0.0,0.0,0.0,-9.71,1.24,-0.45
1738244959.5175116,56276,0,0,,0.0,-0.63,0.37,0.63,0.27,0.12,0.48,-0.21,-9.33,0.74,-2.12,0.0,0.0,0.0,-9.71,1.2,-0.54
1738244959.5360305,56277,0,0,,0.0,-0.63,0.37,0.63,0.27,0.11,0.53,-0.23,-9.49,0.12,-2.89,0.0,0.0,0.0,-9.71,1.18,-0.59
1738244959.5504236,56278,0,0,,0.0,-0.63,0.37,0.63,0.27,0.12,0.57,-0.27,-9.57,0.28,-2.98,0.0,0.0,0.0,-9.71,1.13,-0.7
1738244959.5671446,56279,0,0,,0.0,-0.64,0.37,0.62,0.27,0.17,0.57,-0.28,-10.1,0.72,-1.45,0.0,0.0,0.0,-9.71,1.07,-0.81
1738244959.5859437,56280,0,0,,0.0,-0.64,0.37,0.62,0.27,0.26,0.55,-0.27,-9.54,0.5,-2.25,0.0,0.0,0.0,-9.71,1.05,-0.86
1738244959.6011436,56281,0,0,,0.0,-0.64,0.37,0.61,0.27,0.29,0.63,-0.32,-9.9,0.22,-2.42,0.0,0.0,0.0,-9.7,0.98,-0.98
1738244959.6165624,56282,0,0,,0.0,-0.65,0.37,0.61,0.27,0.3,0.65,-0.35,-9.67,0.34,-3.08,0.0,0.0,0.0,-9.69,0.91,-1.12
1738244959.6358488,56283,0,0,,0.0,-0.65,0.37,0.6,0.28,0.35,0.65,-0.38,-9.92,0.58,-2.13,0.0,0.0,0.0,-9.69,0.87,-1.18
1738244959.6507235,56284,0,0,,0.0,-0.65,0.37,0.6,0.28,0.31,0.7,-0.45,-10.68,0.98,-2.71,0.0,0.0,0.0,-9.68,0.78,-1.31
1738244959.666955,56285,0,0,,0.0,-0.66,0.37,0.59,0.28,0.25,0.76,-0.5,-11.45,0.09,-2.62,0.0,0.0,0.0,-9.67,0.68,-1.46
1738244959.6857297,56286,0,0,,0.0,-0.67,0.37,0.58,0.28,0.36,0.77,-0.52,-9.95,-0.7,-3.2,0.0,0.0,0.0,-9.66,0.63,-1.53
1738244959.700717,56287,0,0,,0.0,-0.67,0.37,0.58,0.28,0.51,0.78,-0.54,-10.0,-0.44,-2.7,0.0,0.0,0.0,-9.64,0.51,-1.68
1738244959.7169497,56288,0,0,,0.0,-0.67,0.38,0.57,0.29,0.47,0.79,-0.56,-10.04,-0.33,-2.62,0.0,0.0,0.0,-9.62,0.39,-1.84
1738244959.7360284,56289,0,0,,0.0,-0.68,0.37,0.56,0.29,0.28,0.85,-0.66,-10.25,-0.77,-2.85,0.0,0.0,0.0,-9.61,0.32,-1.92
1738244959.7505965,56290,0,0,,0.0,-0.68,0.37,0.56,0.29,0.29,0.89,-0.72,-9.94,-0.64,-2.4,0.0,0.0,0.0,-9.57,0.18,-2.08
1738244959.7675545,56291,0,0,,0.0,-0.69,0.37,0.55,0.29,0.34,0.9,-0.76,-9.34,-0.06,-2.92,0.0,0.0,0.0,-9.54,0.02,-2.25
1738244959.7864463,56292,0,0,,0.0,-0.7,0.37,0.54,0.3,0.43,0.97,-0.81,-9.31,0.17,-3.35,0.0,0.0,0.0,-9.52,-0.05,-2.34
1738244959.800664,56293,0,0,,0.0,-0.7,0.37,0.53,0.3,0.49,1.1,-0.9,-9.47,-0.27,-3.27,0.0,0.0,0.0,-9.46,-0.24,-2.54
1738244959.8174777,56294,0,0,,0.0,-0.71,0.37,0.52,0.3,0.53,1.18,-0.95,-9.59,-0.35,-2.8,0.0,0.0,0.0,-9.39,-0.44,-2.76
1738244959.8364089,56295,0,0,,0.0,-0.72,0.37,0.5,0.31,0.6,1.33,-1.01,-9.77,0.14,-2.06,0.0,0.0,0.0,-9.35,-0.55,-2.87
1738244959.8509724,56296,0,0,,0.0,-0.72,0.37,0.49,0.31,0.57,1.53,-0.99,-9.69,-0.48,-2.55,0.0,0.0,0.0,-9.25,-0.76,-3.13
1738244959.86794,56297,0,0,,0.0,-0.73,0.37,0.48,0.31,0.56,1.67,-0.99,-10.05,-0.9,-2.22,0.0,0.0,0.0,-9.13,-0.97,-3.43
1738244959.886653,56298,0,0,,0.0,-0.74,0.38,0.46,0.31,0.53,1.94,-0.9,-10.85,-0.41,-2.41,0.0,0.0,0.0,-9.05,-1.07,-3.6
1738244959.9008567,56299,0,0,,0.0,-0.75,0.38,0.45,0.31,0.5,2.25,-0.68,-12.0,1.14,-3.56,0.0,0.0,0.0,-8.88,-1.24,-3.96
1738244959.9181638,56300,0,0,,0.0,-0.76,0.38,0.43,0.31,0.56,2.43,-0.56,-12.54,0.77,-4.1,0.0,0.0,0.0,-8.66,-1.38,-4.38
1738244959.9365225,56301,0,0,,0.0,-0.77,0.39,0.4,0.3,0.59,2.75,-0.61,-13.43,-0.1,-4.54,0.0,0.0,0.0,-8.53,-1.45,-4.6
1738244959.9514885,56302,0,0,,0.0,-0.78,0.39,0.39,0.3,0.25,2.85,-0.73,-11.86,-0.67,-4.18,0.0,0.0,0.0,-8.24,-1.6,-5.05
1738244959.9676237,56303,0,0,,0.0,-0.79,0.39,0.37,0.3,0.23,2.79,-0.74,-11.46,-0.96,-5.35,0.0,0.0,0.0,-7.94,-1.73,-5.47
1738244959.9869971,56304,0,0,,0.0,-0.8,0.4,0.34,0.29,0.09,2.59,-0.67,-11.3,-3.19,-7.05,0.0,0.0,0.0,-7.79,-1.79,-5.67
1738244960.0012913,56305,0,0,,0.0,-0.8,0.4,0.33,0.29,0.57,2.14,-0.53,-11.69,-1.59,-4.69,0.0,0.0,0.0,-7.51,-1.92,-5.99
1738244960.0175931,56306,0,0,,0.0,-0.81,0.4,0.32,0.29,0.65,1.86,-0.44,-10.19,-0.91,-4.21,0.0,0.0,0.0,-7.29,-2.05,-6.22
1738244960.0364523,56307,0,0,,0.0,-0.81,0.4,0.31,0.29,0.53,1.36,-0.27,-8.66,-0.25,-4.56,0.0,0.0,0.0,-7.2,-2.11,-6.3
1738244960.0518386,56308,0,0,,0.0,-0.82,0.4,0.3,0.28,0.2,0.83,-0.09,-7.11,0.06,-3.91,0.0,0.0,0.0,-7.08,-2.16,-6.42
1738244960.067632,56309,0,0,,0.0,-0.82,0.41,0.3,0.28,0.03,0.54,0.02,-6.69,-0.28,-3.77,0.0,0.0,0.0,-7.03,-2.15,-6.48
1738244960.086879,56310,0,0,,0.0,-0.81,0.41,0.3,0.28,-0.12,-0.06,0.22,-5.63,-0.91,-3.56,0.0,0.0,0.0,-7.04,-2.12,-6.47
1738244960.1013536,56311,0,0,,0.0,-0.81,0.41,0.31,0.28,-0.21,-0.66,0.4,-5.31,-1.05,-3.54,0.0,0.0,0.0,-7.12,-2.05,-6.41
1738244960.1179447,56312,0,0,,0.0,-0.81,0.41,0.32,0.28,-0.24,-0.94,0.47,-5.15,-1.25,-3.55,0.0,0.0,0.0,-7.27,-1.95,-6.27
1738244960.136649,56313,0,0,,0.0,-0.8,0.41,0.33,0.29,-0.23,-1.46,0.61,-5.11,-1.37,-3.65,0.0,0.0,0.0,-7.37,-1.9,-6.17
1738244960.1517391,56314,0,0,,0.0,-0.8,0.41,0.34,0.29,-0.18,-1.94,0.75,-5.14,-1.69,-3.77,0.0,0.0,0.0,-7.61,-1.77,-5.92
1738244960.16726,56315,0,0,,0.0,-0.79,0.41,0.36,0.29,-0.15,-2.16,0.8,-5.18,-1.85,-3.94,0.0,0.0,0.0,-7.89,-1.63,-5.58
1738244960.1862986,56316,0,0,,0.0,-0.77,0.4,0.38,0.3,-0.17,-2.57,0.87,-5.43,-1.68,-4.1,0.0,0.0,0.0,-8.04,-1.55,-5.39
1738244960.2016983,56317,0,0,,0.0,-0.77,0.4,0.4,0.3,-0.35,-2.93,0.91,-5.75,-1.9,-4.31,0.0,0.0,0.0,-8.35,-1.38,-4.94
1738244960.2168226,56318,0,0,,0.0,-0.75,0.4,0.42,0.31,-0.41,-3.09,0.94,-5.92,-1.9,-4.48,0.0,0.0,0.0,-8.66,-1.18,-4.43
1738244960.2364936,56319,0,0,,0.0,-0.74,0.39,0.45,0.31,-0.43,-3.35,1.01,-6.3,-2.12,-5.23,0.0,0.0,0.0,-8.81,-1.08,-4.16
1738244960.2515426,56320,0,0,,0.0,-0.73,0.39,0.47,0.31,-0.43,-3.45,1.0,-6.99,-2.26,-5.87,0.0,0.0,0.0,-9.09,-0.87,-3.57
1738244960.2668812,56321,0,0,,0.0,-0.71,0.39,0.5,0.32,-0.52,-3.48,1.0,-7.25,-2.26,-5.92,0.0,0.0,0.0,-9.32,-0.65,-2.95
1738244960.2869434,56322,0,0,,0.0,-0.69,0.38,0.53,0.32,-0.78,-3.52,1.11,-7.68,-2.04,-6.02,0.0,0.0,0.0,-9.42,-0.53,-2.64
1738244960.3018167,56323,0,0,,0.0,-0.68,0.37,0.54,0.32,-1.01,-3.52,1.17,-7.87,-1.72,-6.2,0.0,0.0,0.0,-9.59,-0.27,-2.0
1738244960.3172154,56324,0,0,,0.0,-0.66,0.37,0.57,0.32,-1.01,-3.51,1.2,-7.92,-1.83,-6.21,0.0,0.0,0.0,-9.71,-0.02,-1.34
1738244960.3368955,56325,0,0,,0.0,-0.64,0.36,0.6,0.32,-0.7,-3.5,1.1,-8.69,-2.92,-6.46,0.0,0.0,0.0,-9.75,0.09,-1.02
1738244960.3517,56326,0,0,,0.0,-0.63,0.36,0.61,0.32,-0.15,-3.47,1.27,-9.62,-3.16,-6.71,0.0,0.0,0.0,-9.79,0.32,-0.36
1738244960.366961,56327,0,0,,0.0,-0.6,0.36,0.64,0.33,0.1,-3.44,1.32,-10.37,-3.25,-6.82,0.0,0.0,0.0,-9.78,0.58,0.28
1738244960.386598,56328,0,0,,0.0,-0.57,0.36,0.66,0.33,0.4,-3.31,1.41,-10.77,-2.45,-7.27,0.0,0.0,0.0,-9.76,0.71,0.59
1738244960.401149,56329,0,0,,0.0,-0.56,0.36,0.67,0.33,0.2,-3.02,1.4,-10.83,-1.37,-7.61,0.0,0.0,0.0,-9.68,0.98,1.17
1738244960.4164946,56330,0,0,,0.0,-0.54,0.35,0.69,0.33,-0.07,-2.82,1.36,-10.61,-1.13,-7.56,0.0,0.0,0.0,-9.63,1.11,1.43
1738244960.4365394,56331,0,0,,0.0,-0.52,0.34,0.71,0.33,-0.7,-2.36,1.16,-10.24,-1.2,-7.11,0.0,0.0,0.0,-9.52,1.32,1.91
1738244960.4512696,56332,0,0,,0.0,-0.52,0.34,0.71,0.33,-1.13,-1.87,0.87,-10.28,-1.85,-6.83,0.0,0.0,0.0,-9.42,1.45,2.3
1738244960.4667125,56333,0,0,,0.0,-0.51,0.33,0.73,0.32,-1.23,-1.62,0.71,-10.32,-2.2,-6.36,0.0,0.0,0.0,-9.37,1.48,2.47
1738244960.4867182,56334,0,0,,0.0,-0.5,0.32,0.74,0.32,-1.29,-1.16,0.46,-9.97,-2.22,-6.21,0.0,0.0,0.0,-9.29,1.51,2.73
1738244960.501023,56335,0,0,,0.0,-0.5,0.32,0.74,0.31,-1.18,-0.66,0.3,-9.41,-1.88,-6.5,0.0,0.0,0.0,-9.24,1.51,2.91
1738244960.516909,56336,0,0,,0.0,-0.5,0.31,0.75,0.31,-1.18,-0.4,0.22,-9.24,-1.98,-6.71,0.0,0.0,0.0,-9.22,1.49,2.96
1738244960.5368168,56337,0,0,,0.0,-0.51,0.3,0.75,0.3,-1.18,0.06,0.06,-10.48,-1.37,-2.2,0.0,0.0,0.0,-9.22,1.44,3.01
1738244960.551477,56338,0,0,,0.0,-0.51,0.3,0.75,0.3,-0.18,0.13,0.14,-15.99,1.13,9.8,0.0,0.0,0.0,-9.22,1.43,2.99
1738244960.5664854,56339,0,0,,0.0,-0.5,0.3,0.75,0.3,0.38,-0.15,0.3,-18.24,3.96,10.6,0.0,0.0,0.0,-9.21,1.47,3.0
1738244960.587245,56340,0,0,,0.0,-0.51,0.3,0.76,0.29,-0.99,-0.25,0.31,-7.07,-0.62,-3.71,0.0,0.0,0.0,-9.18,1.5,3.07
1738244960.6015322,56341,0,0,,0.0,-0.51,0.29,0.76,0.29,-0.43,0.19,0.17,-11.3,-2.73,1.54,0.0,0.0,0.0,-9.19,1.49,3.07
1738244960.6171615,56342,0,0,,0.0,-0.51,0.3,0.76,0.29,-0.12,0.27,0.18,-11.0,-2.51,1.15,0.0,0.0,0.0,-9.19,1.5,3.05
1738244960.6369596,56343,0,0,,0.0,-0.51,0.3,0.75,0.29,0.02,0.39,0.16,-9.71,-1.33,1.13,0.0,0.0,0.0,-9.21,1.54,2.98
1738244960.6513853,56344,0,0,,0.0,-0.51,0.3,0.75,0.28,-0.03,0.32,0.17,-9.55,1.47,2.82,0.0,0.0,0.0,-9.22,1.57,2.92
1738244960.6665397,56345,0,0,,0.0,-0.51,0.3,0.75,0.28,-0.03,0.3,0.22,-9.33,1.91,2.39,0.0,0.0,0.0,-9.23,1.58,2.9
1738244960.6871507,56346,0,0,,0.0,-0.52,0.3,0.75,0.28,0.0,0.4,0.21,-8.62,2.03,-0.37,0.0,0.0,0.0,-9.24,1.62,2.83
1738244960.7010648,56347,0,0,,0.0,-0.52,0.3,0.75,0.28,0.19,0.45,0.2,-9.55,2.15,0.77,0.0,0.0,0.0,-9.26,1.66,2.74
1738244960.7169402,56348,0,0,,0.0,-0.52,0.31,0.75,0.28,0.28,0.43,0.21,-10.06,1.32,1.84,0.0,0.0,0.0,-9.27,1.69,2.7
1738244960.7371454,56349,0,0,,0.0,-0.52,0.31,0.74,0.28,0.38,0.39,0.21,-9.29,0.98,0.76,0.0,0.0,0.0,-9.28,1.75,2.62
1738244960.751363,56350,0,0,,0.0,-0.52,0.32,0.74,0.28,0.46,0.47,0.17,-9.5,1.46,0.81,0.0,0.0,0.0,-9.3,1.8,2.52
1738244960.766746,56351,0,0,,0.0,-0.52,0.32,0.74,0.28,0.32,0.6,0.1,-9.69,1.65,0.95,0.0,0.0,0.0,-9.31,1.82,2.46
1738244960.7868679,56352,0,0,,0.0,-0.53,0.33,0.74,0.27,0.21,0.63,0.08,-9.71,1.35,0.88,0.0,0.0,0.0,-9.34,1.85,2.34
1738244960.8016636,56353,0,0,,0.0,-0.53,0.33,0.73,0.27,0.1,0.6,0.08,-9.61,1.04,0.2,0.0,0.0,0.0,-9.36,1.86,2.22
1738244960.8168156,56354,0,0,,0.0,-0.53,0.33,0.73,0.27,0.14,0.63,0.07,-9.68,1.07,-0.3,0.0,0.0,0.0,-9.37,1.87,2.16
1738244960.8367465,56355,0,0,,0.0,-0.54,0.33,0.73,0.27,0.19,0.63,0.07,-9.81,1.22,-0.15,0.0,0.0,0.0,-9.4,1.89,2.04
1738244960.8519163,56356,0,0,,0.0,-0.54,0.34,0.72,0.27,0.25,0.56,0.09,-9.56,1.14,-0.16,0.0,0.0,0.0,-9.42,1.92,1.93
1738244960.8671591,56357,0,0,,0.0,-0.54,0.34,0.72,0.27,0.23,0.47,0.12,-9.68,1.12,-0.09,0.0,0.0,0.0,-9.42,1.93,1.88
1738244960.8874602,56358,0,0,,0.0,-0.54,0.34,0.72,0.27,0.19,0.46,0.12,-9.96,1.45,-0.94,0.0,0.0,0.0,-9.43,1.96,1.79
1738244960.901978,56359,0,0,,0.0,-0.54,0.34,0.72,0.27,0.04,0.45,0.1,-10.28,1.35,-0.02,0.0,0.0,0.0,-9.45,1.98,1.7
1738244960.9179513,56360,0,0,,0.0,-0.55,0.34,0.72,0.26,-0.01,0.4,0.09,-9.92,1.44,-0.37,0.0,0.0,0.0,-9.45,1.99,1.66
1738244960.9372215,56361,0,0,,0.0,-0.55,0.35,0.72,0.26,0.0,0.3,0.09,-9.48,1.45,-1.27,0.0,0.0,0.0,-9.46,2.01,1.6
1738244960.952562,56362,0,0,,0.0,-0.55,0.35,0.71,0.26,0.02,0.31,0.04,-9.62,1.55,-0.81,0.0,0.0,0.0,-9.46,2.02,1.55
1738244960.9671931,56363,0,0,,0.0,-0.55,0.35,0.71,0.26,0.07,0.33,0.02,-10.01,1.39,0.11,0.0,0.0,0.0,-9.47,2.02,1.52
1738244960.987977,56364,0,0,,0.0,-0.55,0.35,0.71,0.26,0.11,0.3,-0.01,-9.54,1.61,-0.11,0.0,0.0,0.0,-9.48,2.03,1.45
1738244961.0041149,56365,0,0,,0.0,-0.55,0.35,0.71,0.26,0.11,0.32,-0.05,-9.26,1.36,-1.08,0.0,0.0,0.0,-9.49,2.02,1.39
1738244961.020201,56366,0,0,,0.0,-0.56,0.35,0.71,0.26,0.11,0.39,-0.11,-9.41,1.59,-1.03,0.0,0.0,0.0,-9.5,2.01,1.32
1738244961.0381258,56367,0,0,,0.0,-0.56,0.35,0.7,0.26,0.09,0.41,-0.12,-9.86,1.47,0.1,0.0,0.0,0.0,-9.52,1.99,1.25
1738244961.0528257,56368,0,0,,0.0,-0.56,0.35,0.7,0.26,0.12,0.34,-0.11,-9.66,1.11,-0.26,0.0,0.0,0.0,-9.53,1.96,1.16
1738244961.0682225,56369,0,0,,0.0,-0.56,0.35,0.7,0.26,0.14,0.33,-0.12,-9.17,1.12,-1.84,0.0,0.0,0.0,-9.54,1.94,1.09
1738244961.0877833,56370,0,0,,0.0,-0.57,0.36,0.7,0.26,0.08,0.39,-0.15,-9.51,1.52,-1.37,0.0,0.0,0.0,-9.56,1.91,1.02
1738244961.1024857,56371,0,0,,0.0,-0.57,0.35,0.69,0.26,-0.03,0.38,-0.16,-9.62,1.36,-0.65,0.0,0.0,0.0,-9.56,1.9,0.99
1738244961.1175146,56372,0,0,,0.0,-0.57,0.35,0.69,0.26,-0.06,0.35,-0.15,-9.69,1.01,-0.54,0.0,0.0,0.0,-9.57,1.88,0.95
1738244961.1378427,56373,0,0,,0.0,-0.58,0.35,0.69,0.26,-0.15,0.37,-0.17,-9.71,1.07,-0.71,0.0,0.0,0.0,-9.58,1.85,0.89
1738244961.1523662,56374,0,0,,0.0,-0.58,0.35,0.69,0.26,-0.2,0.45,-0.21,-9.72,1.15,-0.95,0.0,0.0,0.0,-9.6,1.81,0.82
1738244961.167585,56375,0,0,,0.0,-0.58,0.35,0.69,0.26,-0.22,0.45,-0.21,-9.79,1.33,-0.49,0.0,0.0,0.0,-9.61,1.77,0.74
1738244961.187714,56376,0,0,,0.0,-0.59,0.35,0.68,0.26,-0.13,0.42,-0.18,-9.52,1.01,-0.82,0.0,0.0,0.0,-9.62,1.73,0.66
1738244961.204258,56377,0,0,,0.0,-0.59,0.35,0.68,0.26,-0.07,0.48,-0.14,-9.64,1.34,-1.37,0.0,0.0,0.0,-9.63,1.7,0.58
1738244961.2197094,56378,0,0,,0.0,-0.59,0.35,0.68,0.26,-0.04,0.52,-0.13,-10.11,1.15,-0.07,0.0,0.0,0.0,-9.64,1.67,0.48
1738244961.2383695,56379,0,0,,0.0,-0.6,0.35,0.67,0.26,0.01,0.49,-0.14,-9.85,1.44,-0.86,0.0,0.0,0.0,-9.65,1.65,0.4
1738244961.2530205,56380,0,0,,0.0,-0.6,0.35,0.67,0.26,0.02,0.46,-0.1,-9.31,0.94,-2.31,0.0,0.0,0.0,-9.66,1.64,0.35
1738244961.2688363,56381,0,0,,0.0,-0.6,0.35,0.67,0.25,0.01,0.49,-0.09,-9.45,0.42,-2.0,0.0,0.0,0.0,-9.66,1.62,0.26
1738244961.2880783,56382,0,0,,0.0,-0.61,0.35,0.67,0.25,0.03,0.53,-0.16,-9.93,0.82,-0.82,0.0,0.0,0.0,-9.67,1.59,0.16
1738244961.3029811,56383,0,0,,0.0,-0.61,0.35,0.66,0.25,0.06,0.48,-0.16,-9.64,0.78,-1.25,0.0,0.0,0.0,-9.67,1.57,0.11
1738244961.3177857,56384,0,0,,0.0,-0.61,0.35,0.66,0.25,0.07,0.48,-0.15,-9.25,1.01,-2.68,0.0,0.0,0.0,-9.68,1.54,0.02
1738244961.3379362,56385,0,0,,0.0,-0.61,0.35,0.66,0.25,0.06,0.53,-0.19,-9.76,0.93,-1.75,0.0,0.0,0.0,-9.68,1.53,-0.02
1738244961.3527436,56386,0,0,,0.0,-0.62,0.36,0.65,0.25,0.07,0.54,-0.2,-9.96,1.33,-1.17,0.0,0.0,0.0,-9.69,1.49,-0.13
1738244961.3676786,56387,0,0,,0.0,-0.62,0.36,0.65,0.25,0.09,0.49,-0.19,-9.46,0.95,-1.92,0.0,0.0,0.0,-9.69,1.45,-0.22
1738244961.3883214,56388,0,0,,0.0,-0.62,0.36,0.65,0.25,0.08,0.51,-0.2,-9.43,0.28,-2.77,0.0,0.0,0.0,-9.69,1.41,-0.32
1738244961.4024332,56389,0,0,,0.0,-0.63,0.36,0.65,0.25,0.09,0.58,-0.24,-9.6,0.79,-2.73,0.0,0.0,0.0,-9.69,1.39,-0.38
1738244961.4177806,56390,0,0,,0.0,-0.63,0.36,0.64,0.25,0.08,0.58,-0.25,-10.02,1.23,-1.09,0.0,0.0,0.0,-9.7,1.37,-0.43
1738244961.4377244,56391,0,0,,0.0,-0.64,0.36,0.64,0.25,0.09,0.56,-0.26,-9.6,0.82,-2.02,0.0,0.0,0.0,-9.7,1.32,-0.54
1738244961.4523976,56392,0,0,,0.0,-0.64,0.36,0.63,0.25,0.05,0.63,-0.31,-10.05,0.51,-2.28,0.0,0.0,0.0,-9.7,1.26,-0.66
1738244961.4678707,56393,0,0,,0.0,-0.64,0.36,0.63,0.25,0.09,0.68,-0.33,-9.97,0.77,-2.71,0.0,0.0,0.0,-9.7,1.23,-0.73
1738244961.4881616,56394,0,0,,0.0,-0.65,0.36,0.62,0.26,0.27,0.68,-0.36,-9.79,1.03,-2.25,0.0,0.0,0.0,-9.69,1.16,-0.86
1738244961.502225,56395,0,0,,0.0,-0.65,0.36,0.62,0.26,0.43,0.68,-0.36,-10.08,0.56,-2.1,0.0,0.0,0.0,-9.69,1.09,-0.99
1738244961.5181134,56396,0,0,,0.0,-0.65,0.36,0.61,0.26,0.47,0.71,-0.38,-10.35,0.13,-2.32,0.0,0.0,0.0,-9.69,1.05,-1.06
1738244961.5380044,56397,0,0,,0.0,-0.66,0.36,0.6,0.26,0.49,0.76,-0.45,-10.49,0.88,-3.24,0.0,0.0,0.0,-9.68,0.95,-1.22
1738244961.5528038,56398,0,0,,0.0,-0.66,0.36,0.6,0.26,0.36,0.79,-0.51,-10.02,-0.23,-2.89,0.0,0.0,0.0,-9.67,0.85,-1.37
1738244961.5681088,56399,0,0,,0.0,-0.67,0.36,0.59,0.27,0.34,0.76,-0.51,-9.85,-0.5,-2.73,0.0,0.0,0.0,-9.66,0.8,-1.44
1738244961.5883613,56400,0,0,,0.0,-0.67,0.37,0.58,0.27,0.41,0.82,-0.55,-10.05,-0.59,-2.79,0.0,0.0,0.0,-9.64,0.69,-1.6
1738244961.6027215,56401,0,0,,0.0,-0.68,0.37,0.58,0.27,0.41,0.86,-0.62,-10.05,-0.35,-2.26,0.0,0.0,0.0,-9.62,0.56,-1.77
1738244961.618015,56402,0,0,,0.0,-0.68,0.36,0.57,0.27,0.39,0.86,-0.64,-10.25,0.07,-2.23,0.0,0.0,0.0,-9.6,0.42,-1.93
1738244961.6383662,56403,0,0,,0.0,-0.69,0.36,0.56,0.28,0.31,0.85,-0.67,-9.46,-0.21,-3.64,0.0,0.0,0.0,-9.59,0.36,-2.01
1738244961.6529346,56404,0,0,,0.0,-0.69,0.36,0.56,0.28,0.33,0.92,-0.74,-8.99,-0.28,-3.5,0.0,0.0,0.0,-9.55,0.21,-2.17
1738244961.6677866,56405,0,0,,0.0,-0.7,0.36,0.55,0.28,0.38,0.95,-0.78,-9.05,-0.21,-2.71,0.0,0.0,0.0,-9.54,0.13,-2.26
1738244961.6885822,56406,0,0,,0.0,-0.71,0.36,0.54,0.28,0.43,1.0,-0.82,-8.79,0.35,-3.08,0.0,0.0,0.0,-9.49,-0.03,-2.45
1738244961.7026637,56407,0,0,,0.0,-0.71,0.36,0.53,0.29,0.35,1.08,-0.87,-8.7,-0.57,-4.05,0.0,0.0,0.0,-9.44,-0.21,-2.64
1738244961.717903,56408,0,0,,0.0,-0.72,0.36,0.52,0.29,0.33,1.13,-0.9,-9.08,-0.9,-3.2,0.0,0.0,0.0,-9.4,-0.3,-2.74
1738244961.7382097,56409,0,0,,0.0,-0.73,0.36,0.51,0.29,0.39,1.3,-1.0,-9.68,-0.63,-2.0,0.0,0.0,0.0,-9.33,-0.49,-2.97
1738244961.7528944,56410,0,0,,0.0,-0.73,0.36,0.5,0.29,0.44,1.4,-1.0,-9.51,-0.57,-2.53,0.0,0.0,0.0,-9.23,-0.7,-3.21
1738244961.7681813,56411,0,0,,0.0,-0.74,0.35,0.49,0.29,0.43,1.46,-0.98,-9.56,-1.08,-3.04,0.0,0.0,0.0,-9.18,-0.8,-3.34
1738244961.7888243,56412,0,0,,0.0,-0.75,0.35,0.47,0.29,0.4,1.68,-0.95,-10.39,-0.84,-2.44,0.0,0.0,0.0,-9.05,-1.0,-3.62
1738244961.8033166,56413,0,0,,0.0,-0.76,0.35,0.46,0.3,0.51,1.97,-0.81,-12.04,0.32,-3.54,0.0,0.0,0.0,-8.9,-1.18,-3.93
1738244961.81865,56414,0,0,,0.0,-0.77,0.36,0.44,0.29,0.54,2.16,-0.74,-12.9,0.34,-4.06,0.0,0.0,0.0,-8.7,-1.35,-4.31
1738244961.8383281,56415,0,0,,0.0,-0.78,0.36,0.42,0.29,0.38,2.52,-0.73,-13.12,-0.04,-5.09,0.0,0.0,0.0,-8.58,-1.42,-4.51
1738244961.8533409,56416,0,0,,0.0,-0.79,0.36,0.41,0.29,-0.06,2.69,-0.86,-12.18,0.09,-5.06,0.0,0.0,0.0,-8.31,-1.56,-4.95
1738244961.8690677,56417,0,0,,0.0,-0.8,0.36,0.38,0.28,-0.16,2.73,-0.89,-11.55,-0.16,-4.83,0.0,0.0,0.0,-8.17,-1.63,-5.17
1738244961.8884518,56418,0,0,,0.0,-0.82,0.36,0.36,0.27,-0.25,2.64,-0.81,-11.43,-0.62,-5.19,0.0,0.0,0.0,-7.71,-1.77,-5.78
1738244961.9036412,56419,0,0,,0.0,-0.82,0.36,0.35,0.27,-0.25,2.27,-0.61,-10.62,-2.32,-5.26,0.0,0.0,0.0,-7.57,-1.8,-5.95
1738244961.9186916,56420,0,0,,0.0,-0.83,0.36,0.34,0.26,-0.01,2.04,-0.53,-10.36,-1.09,-4.42,0.0,0.0,0.0,-7.44,-1.84,-6.1
1738244961.9385507,56421,0,0,,0.0,-0.83,0.36,0.33,0.26,0.28,1.42,-0.32,-8.32,-0.21,-4.35,0.0,0.0,0.0,-7.24,-1.93,-6.32
1738244961.9533486,56422,0,0,,0.0,-0.84,0.36,0.32,0.26,-0.05,0.87,-0.13,-7.03,-0.22,-4.72,0.0,0.0,0.0,-7.11,-1.95,-6.46
1738244961.9684813,56423,0,0,,0.0,-0.84,0.36,0.32,0.26,-0.16,0.62,-0.05,-6.51,-0.28,-4.69,0.0,0.0,0.0,-7.05,-1.93,-6.53
1738244961.9886184,56424,0,0,,0.0,-0.84,0.36,0.32,0.25,-0.3,0.08,0.14,-5.34,-1.3,-4.49,0.0,0.0,0.0,-7.06,-1.86,-6.54
1738244962.0028954,56425,0,0,,0.0,-0.84,0.36,0.32,0.25,-0.29,-0.46,0.31,-4.67,-1.86,-4.61,0.0,0.0,0.0,-7.09,-1.82,-6.51
1738244962.0188966,56426,0,0,,0.0,-0.83,0.36,0.33,0.25,-0.26,-0.74,0.39,-4.46,-2.06,-4.67,0.0,0.0,0.0,-7.15,-1.78,-6.46
1738244962.0384855,56427,0,0,,0.0,-0.83,0.36,0.34,0.25,-0.16,-1.23,0.48,-4.52,-2.07,-4.52,0.0,0.0,0.0,-7.3,-1.69,-6.31
1738244962.0532918,56428,0,0,,0.0,-0.82,0.36,0.35,0.26,-0.02,-1.67,0.57,-4.59,-2.28,-4.61,0.0,0.0,0.0,-7.51,-1.61,-6.09
1738244962.0682685,56429,0,0,,0.0,-0.81,0.37,0.37,0.26,0.06,-1.86,0.61,-4.69,-2.33,-4.55,0.0,0.0,0.0,-7.62,-1.57,-5.95
1738244962.0888374,56430,0,0,,0.0,-0.8,0.37,0.39,0.27,0.2,-2.2,0.68,-4.99,-2.44,-4.68,0.0,0.0,0.0,-8.02,-1.45,-5.45
1738244962.1032455,56431,0,0,,0.0,-0.8,0.37,0.4,0.27,0.23,-2.48,0.71,-5.41,-2.51,-4.6,0.0,0.0,0.0,-8.16,-1.4,-5.25
1738244962.1183565,56432,0,0,,0.0,-0.78,0.36,0.42,0.28,0.21,-2.61,0.74,-5.99,-2.49,-4.4,0.0,0.0,0.0,-8.3,-1.35,-5.04
1738244962.1387424,56433,0,0,,0.0,-0.77,0.36,0.44,0.29,0.24,-2.86,0.82,-6.33,-2.57,-4.89,0.0,0.0,0.0,-8.58,-1.24,-4.57
1738244962.1532743,56434,0,0,,0.0,-0.76,0.36,0.45,0.29,0.35,-3.03,0.91,-7.03,-2.31,-5.49,0.0,0.0,0.0,-8.85,-1.12,-4.06
1738244962.169088,56435,0,0,,0.0,-0.74,0.36,0.48,0.3,0.37,-3.08,0.96,-7.23,-2.17,-5.69,0.0,0.0,0.0,-8.98,-1.05,-3.79
1738244962.1885917,56436,0,0,,0.0,-0.72,0.36,0.5,0.31,0.26,-3.11,0.95,-7.93,-1.89,-5.93,0.0,0.0,0.0,-9.21,-0.9,-3.24
1738244962.2033393,56437,0,0,,0.0,-0.71,0.36,0.51,0.31,-0.01,-3.12,1.01,-8.08,-1.53,-6.2,0.0,0.0,0.0,-9.4,-0.73,-2.67
1738244962.218841,56438,0,0,,0.0,-0.69,0.36,0.54,0.32,-0.17,-3.1,1.03,-8.2,-1.26,-6.25,0.0,0.0,0.0,-9.48,-0.63,-2.39
1738244962.2389052,56439,0,0,,0.0,-0.67,0.35,0.57,0.32,-0.49,-3.04,1.08,-8.46,-1.24,-6.11,0.0,0.0,0.0,-9.62,-0.42,-1.83
1738244962.2533038,56440,0,0,,0.0,-0.67,0.35,0.58,0.32,-0.67,-2.95,1.09,-9.16,-1.78,-5.83,0.0,0.0,0.0,-9.72,-0.19,-1.28
1738244962.2692304,56441,0,0,,0.0,-0.65,0.34,0.6,0.32,-0.7,-2.91,1.12,-9.48,-1.93,-5.68,0.0,0.0,0.0,-9.75,-0.08,-1.0
1738244962.2893226,56442,0,0,,0.0,-0.63,0.34,0.62,0.32,-0.61,-2.85,1.12,-10.27,-2.3,-5.56,0.0,0.0,0.0,-9.8,0.24,-0.19
1738244962.3036723,56443,0,0,,0.0,-0.62,0.34,0.63,0.32,-0.41,-2.74,1.1,-10.41,-2.01,-5.5,0.0,0.0,0.0,-9.8,0.34,0.06
1738244962.3189511,56444,0,0,,0.0,-0.6,0.33,0.65,0.32,-0.33,-2.66,1.08,-10.47,-1.95,-5.57,0.0,0.0,0.0,-9.79,0.44,0.31
1738244962.3388193,56445,0,0,,0.0,-0.58,0.33,0.67,0.32,-0.19,-2.43,1.02,-10.29,-1.36,-5.79,0.0,0.0,0.0,-9.75,0.64,0.79
1738244962.3534222,56446,0,0,,0.0,-0.57,0.33,0.68,0.32,-0.14,-2.1,0.96,-9.93,-1.13,-5.36,0.0,0.0,0.0,-9.69,0.82,1.2
1738244962.3686767,56447,0,0,,0.0,-0.56,0.33,0.69,0.32,-0.12,-1.93,0.92,-9.91,-1.27,-5.23,0.0,0.0,0.0,-9.66,0.9,1.38
1738244962.3885741,56448,0,0,,0.0,-0.55,0.33,0.7,0.32,-0.06,-1.57,0.8,-9.88,-1.38,-5.02,0.0,0.0,0.0,-9.6,1.06,1.69
1738244962.403603,56449,0,0,,0.0,-0.54,0.33,0.71,0.31,-0.01,-1.23,0.63,-9.76,-1.43,-4.45,0.0,0.0,0.0,-9.53,1.18,1.94
1738244962.4187407,56450,0,0,,0.0,-0.53,0.33,0.71,0.31,-0.0,-1.06,0.55,-9.71,-1.22,-4.29,0.0,0.0,0.0,-9.51,1.23,2.03
1738244962.438435,56451,0,0,,0.0,-0.53,0.32,0.72,0.31,-0.14,-0.77,0.4,-9.28,-0.72,-4.36,0.0,0.0,0.0,-9.46,1.31,2.19
1738244962.4523811,56452,0,0,,0.0,-0.53,0.32,0.72,0.31,-0.4,-0.46,0.28,-8.84,-0.58,-5.25,0.0,0.0,0.0,-9.43,1.35,2.3
1738244962.4681284,56453,0,0,,0.0,-0.53,0.32,0.72,0.31,-0.58,-0.29,0.21,-8.8,-0.71,-6.37,0.0,0.0,0.0,-9.42,1.36,2.33
1738244962.487592,56454,0,0,,0.0,-0.53,0.32,0.73,0.3,-0.88,0.13,0.08,-8.67,-0.95,-6.69,0.0,0.0,0.0,-9.42,1.34,2.35
1738244962.5018191,56455,0,0,,0.0,-0.53,0.31,0.73,0.3,-0.48,0.63,-0.05,-14.71,-0.2,4.2,0.0,0.0,0.0,-9.44,1.3,2.27
1738244962.516503,56456,0,0,,0.0,-0.54,0.31,0.72,0.3,-0.01,0.55,-0.11,-15.54,2.4,5.23,0.0,0.0,0.0,-9.46,1.29,2.22
1738244962.5321007,56457,0,0,,0.0,-0.54,0.32,0.72,0.3,-0.03,0.17,0.08,-10.04,-0.2,-1.62,0.0,0.0,0.0,-9.47,1.31,2.18
1738244962.5510404,56458,0,0,,0.0,-0.54,0.31,0.72,0.3,-0.3,0.18,0.06,-10.35,-2.53,-1.32,0.0,0.0,0.0,-9.47,1.3,2.15
1738244962.5653083,56459,0,0,,0.0,-0.54,0.31,0.72,0.3,-0.3,0.29,0.01,-11.1,-1.72,0.75,0.0,0.0,0.0,-9.48,1.29,2.12
1738244962.5809717,56460,0,0,,0.0,-0.54,0.31,0.72,0.29,-0.11,0.26,0.09,-10.09,-1.53,0.13,0.0,0.0,0.0,-9.49,1.31,2.08
1738244962.6003053,56461,0,0,,0.0,-0.54,0.32,0.72,0.29,0.07,0.16,0.25,-9.7,0.67,0.0,0.0,0.0,0.0,-9.48,1.37,2.05
1738244962.6146386,56462,0,0,,0.0,-0.54,0.32,0.72,0.29,0.15,0.1,0.3,-9.84,1.41,0.26,0.0,0.0,0.0,-9.48,1.4,2.04
1738244962.631463,56463,0,0,,0.0,-0.54,0.32,0.72,0.29,0.13,0.08,0.32,-9.49,1.61,0.03,0.0,0.0,0.0,-9.48,1.46,2.03
1738244962.6502864,56464,0,0,,0.0,-0.54,0.32,0.72,0.29,0.19,0.01,0.33,-9.23,1.41,-0.93,0.0,0.0,0.0,-9.47,1.53,2.02
1738244962.6649466,56465,0,0,,0.0,-0.54,0.33,0.72,0.29,0.35,-0.05,0.34,-9.38,0.81,-1.0,0.0,0.0,0.0,-9.46,1.57,2.02
1738244962.6813643,56466,0,0,,0.0,-0.54,0.33,0.72,0.29,0.44,-0.04,0.34,-10.2,0.38,0.44,0.0,0.0,0.0,-9.45,1.65,2.01
1738244962.7005942,56467,0,0,,0.0,-0.53,0.34,0.72,0.29,0.6,-0.04,0.36,-9.26,1.5,1.02,0.0,0.0,0.0,-9.43,1.74,2.0
1738244962.7151785,56468,0,0,,0.0,-0.53,0.34,0.72,0.29,0.4,-0.0,0.37,-8.88,1.8,0.61,0.0,0.0,0.0,-9.43,1.78,1.99
1738244962.7318022,56469,0,0,,0.0,-0.53,0.34,0.72,0.29,0.21,0.08,0.35,-8.95,1.92,1.05,0.0,0.0,0.0,-9.42,1.85,1.96
1738244962.7506208,56470,0,0,,0.0,-0.53,0.34,0.72,0.28,-0.16,0.34,0.26,-9.25,2.15,1.48,0.0,0.0,0.0,-9.43,1.88,1.9
1738244962.7657018,56471,0,0,,0.0,-0.53,0.34,0.72,0.28,-0.28,0.45,0.17,-9.15,2.31,0.77,0.0,0.0,0.0,-9.43,1.9,1.86
1738244962.7810717,56472,0,0,,0.0,-0.54,0.34,0.72,0.28,-0.28,0.48,0.13,-9.27,1.87,-1.0,0.0,0.0,0.0,-9.45,1.91,1.79
1738244962.8005953,56473,0,0,,0.0,-0.54,0.34,0.72,0.27,-0.28,0.53,0.07,-9.87,1.13,-0.96,0.0,0.0,0.0,-9.46,1.91,1.7
1738244962.8154929,56474,0,0,,0.0,-0.54,0.35,0.71,0.27,-0.12,0.53,0.03,-10.57,0.47,0.32,0.0,0.0,0.0,-9.47,1.91,1.65
1738244962.8314934,56475,0,0,,0.0,-0.55,0.35,0.71,0.27,0.03,0.49,0.02,-10.07,0.7,-0.3,0.0,0.0,0.0,-9.48,1.92,1.56
1738244962.8510952,56476,0,0,,0.0,-0.55,0.35,0.71,0.27,0.17,0.42,0.01,-9.82,1.27,-0.56,0.0,0.0,0.0,-9.5,1.92,1.48
1738244962.865464,56477,0,0,,0.0,-0.55,0.35,0.71,0.27,0.1,0.49,-0.07,-9.58,1.72,-0.78,0.0,0.0,0.0,-9.5,1.92,1.43
1738244962.8819733,56478,0,0,,0.0,-0.56,0.35,0.7,0.27,0.06,0.52,-0.09,-9.51,1.91,-0.06,0.0,0.0,0.0,-9.52,1.9,1.33
1738244962.9008834,56479,0,0,,0.0,-0.56,0.35,0.7,0.27,0.02,0.5,-0.14,-9.4,1.43,-0.39,0.0,0.0,0.0,-9.54,1.87,1.24
1738244962.9158068,56480,0,0,,0.0,-0.56,0.35,0.7,0.27,-0.0,0.51,-0.18,-9.4,1.01,-1.11,0.0,0.0,0.0,-9.55,1.85,1.19
1738244962.9317114,56481,0,0,,0.0,-0.57,0.35,0.7,0.27,-0.04,0.55,-0.21,-9.64,0.91,-1.27,0.0,0.0,0.0,-9.57,1.81,1.09
1738244962.9513106,56482,0,0,,0.0,-0.57,0.35,0.69,0.27,-0.02,0.56,-0.21,-9.85,0.48,-0.9,0.0,0.0,0.0,-9.59,1.78,0.99
1738244962.9653587,56483,0,0,,0.0,-0.57,0.35,0.69,0.27,0.06,0.44,-0.16,-9.94,0.41,-0.79,0.0,0.0,0.0,-9.59,1.76,0.95
1738244962.9816263,56484,0,0,,0.0,-0.57,0.35,0.69,0.27,0.11,0.39,-0.14,-9.9,0.68,-1.29,0.0,0.0,0.0,-9.61,1.74,0.87
1738244963.001361,56485,0,0,,0.0,-0.58,0.35,0.68,0.27,0.1,0.41,-0.14,-10.16,0.89,-0.42,0.0,0.0,0.0,-9.62,1.72,0.79
1738244963.0155802,56486,0,0,,0.0,-0.58,0.35,0.68,0.27,0.04,0.36,-0.12,-9.98,1.11,-0.67,0.0,0.0,0.0,-9.62,1.71,0.76
1738244963.0316613,56487,0,0,,0.0,-0.58,0.36,0.68,0.27,0.03,0.32,-0.09,-9.36,0.84,-1.87,0.0,0.0,0.0,-9.63,1.69,0.7
1738244963.050723,56488,0,0,,0.0,-0.58,0.36,0.68,0.27,-0.02,0.31,-0.08,-9.67,1.39,-1.49,0.0,0.0,0.0,-9.64,1.67,0.64
1738244963.0659575,56489,0,0,,0.0,-0.59,0.36,0.68,0.27,-0.08,0.34,-0.06,-9.97,1.39,-0.66,0.0,0.0,0.0,-9.64,1.67,0.61
1738244963.0816846,56490,0,0,,0.0,-0.59,0.35,0.68,0.27,-0.13,0.31,-0.05,-9.62,1.24,-1.28,0.0,0.0,0.0,-9.64,1.65,0.56
1738244963.1014714,56491,0,0,,0.0,-0.59,0.35,0.68,0.26,-0.13,0.26,-0.04,-9.21,0.77,-1.76,0.0,0.0,0.0,-9.65,1.65,0.51
1738244963.1157181,56492,0,0,,0.0,-0.59,0.35,0.68,0.26,-0.12,0.33,-0.04,-9.56,1.09,-1.03,0.0,0.0,0.0,-9.65,1.64,0.49
1738244963.1321435,56493,0,0,,0.0,-0.59,0.35,0.67,0.26,-0.11,0.36,-0.05,-9.97,1.41,-0.48,0.0,0.0,0.0,-9.66,1.63,0.42
1738244963.1511931,56494,0,0,,0.0,-0.6,0.35,0.67,0.26,-0.06,0.36,-0.08,-9.65,0.83,-1.06,0.0,0.0,0.0,-9.66,1.61,0.36
1738244963.1658404,56495,0,0,,0.0,-0.6,0.35,0.67,0.26,0.01,0.35,-0.07,-9.25,0.54,-2.34,0.0,0.0,0.0,-9.66,1.61,0.32
1738244963.182002,56496,0,0,,0.0,-0.6,0.36,0.67,0.26,0.07,0.41,-0.15,-9.55,0.88,-2.28,0.0,0.0,0.0,-9.67,1.58,0.25
1738244963.2013466,56497,0,0,,0.0,-0.6,0.36,0.66,0.26,0.07,0.4,-0.15,-9.57,0.99,-1.6,0.0,0.0,0.0,-9.68,1.55,0.17
1738244963.2163684,56498,0,0,,0.0,-0.6,0.36,0.66,0.26,0.12,0.34,-0.13,-9.47,0.67,-1.56,0.0,0.0,0.0,-9.68,1.54,0.14
1738244963.232439,56499,0,0,,0.0,-0.61,0.36,0.66,0.26,0.11,0.37,-0.14,-9.54,0.42,-1.89,0.0,0.0,0.0,-9.69,1.5,0.01
1738244963.251733,56500,0,0,,0.0,-0.61,0.36,0.65,0.26,0.13,0.41,-0.17,-9.7,0.62,-1.88,0.0,0.0,0.0,-9.69,1.46,-0.06
1738244963.2660983,56501,0,0,,0.0,-0.61,0.36,0.65,0.26,0.15,0.41,-0.18,-9.68,1.12,-1.67,0.0,0.0,0.0,-9.69,1.45,-0.1
1738244963.2822225,56502,0,0,,0.0,-0.62,0.36,0.65,0.26,0.18,0.37,-0.16,-9.65,0.73,-1.61,0.0,0.0,0.0,-9.7,1.41,-0.17
1738244963.3015738,56503,0,0,,0.0,-0.62,0.36,0.65,0.26,0.2,0.39,-0.18,-9.74,0.77,-2.26,0.0,0.0,0.0,-9.7,1.38,-0.26
1738244963.316223,56504,0,0,,0.0,-0.62,0.36,0.64,0.26,0.21,0.45,-0.23,-9.54,0.46,-2.45,0.0,0.0,0.0,-9.7,1.36,-0.3
1738244963.332362,56505,0,0,,0.0,-0.62,0.36,0.64,0.26,0.26,0.41,-0.23,-9.36,0.63,-2.17,0.0,0.0,0.0,-9.71,1.31,-0.39
1738244963.3514,56506,0,0,,0.0,-0.63,0.36,0.64,0.27,0.25,0.4,-0.22,-9.21,0.66,-2.95,0.0,0.0,0.0,-9.71,1.27,-0.47
1738244963.3659334,56507,0,0,,0.0,-0.63,0.36,0.63,0.27,0.23,0.46,-0.26,-9.36,0.15,-2.9,0.0,0.0,0.0,-9.71,1.24,-0.52
1738244963.3826792,56508,0,0,,0.0,-0.63,0.37,0.63,0.27,0.26,0.5,-0.31,-9.74,0.53,-1.98,0.0,0.0,0.0,-9.71,1.18,-0.62
1738244963.4017856,56509,0,0,,0.0,-0.63,0.37,0.62,0.27,0.31,0.5,-0.31,-9.44,0.6,-1.74,0.0,0.0,0.0,-9.71,1.12,-0.72
1738244963.4161508,56510,0,0,,0.0,-0.64,0.37,0.62,0.27,0.39,0.51,-0.32,-9.19,0.68,-2.78,0.0,0.0,0.0,-9.71,1.09,-0.77
1738244963.4325721,56511,0,0,,0.0,-0.64,0.37,0.62,0.27,0.43,0.62,-0.39,-9.69,0.34,-2.06,0.0,0.0,0.0,-9.71,1.01,-0.89
1738244963.4517522,56512,0,0,,0.0,-0.64,0.37,0.61,0.28,0.47,0.65,-0.43,-10.21,0.82,-0.95,0.0,0.0,0.0,-9.7,0.92,-1.02
1738244963.4662983,56513,0,0,,0.0,-0.65,0.37,0.61,0.28,0.59,0.65,-0.47,-9.51,1.03,-2.13,0.0,0.0,0.0,-9.7,0.87,-1.09
1738244963.4828045,56514,0,0,,0.0,-0.65,0.37,0.6,0.28,0.49,0.74,-0.56,-10.83,0.54,-3.22,0.0,0.0,0.0,-9.69,0.76,-1.23
1738244963.502204,56515,0,0,,0.0,-0.66,0.37,0.59,0.29,0.45,0.78,-0.57,-9.99,-0.59,-3.6,0.0,0.0,0.0,-9.68,0.64,-1.38
1738244963.5165899,56516,0,0,,0.0,-0.66,0.37,0.59,0.29,0.63,0.82,-0.59,-10.83,-0.83,-2.01,0.0,0.0,0.0,-9.67,0.57,-1.46
1738244963.532799,56517,0,0,,0.0,-0.66,0.38,0.58,0.29,0.68,0.78,-0.62,-10.07,-0.49,-2.78,0.0,0.0,0.0,-9.66,0.44,-1.62
1738244963.551681,56518,0,0,,0.0,-0.67,0.38,0.57,0.3,0.59,0.8,-0.63,-10.44,-1.53,-3.03,0.0,0.0,0.0,-9.63,0.3,-1.78
1738244963.5667117,56519,0,0,,0.0,-0.67,0.38,0.56,0.3,0.41,0.87,-0.71,-10.67,-1.21,-3.0,0.0,0.0,0.0,-9.62,0.22,-1.86
1738244963.5828912,56520,0,0,,0.0,-0.68,0.38,0.55,0.3,0.51,0.91,-0.79,-10.54,-0.47,-2.16,0.0,0.0,0.0,-9.59,0.06,-2.03
1738244963.6018062,56521,0,0,,0.0,-0.69,0.38,0.54,0.31,0.59,0.91,-0.82,-9.97,-0.31,-2.34,0.0,0.0,0.0,-9.55,-0.11,-2.2
1738244963.6169207,56522,0,0,,0.0,-0.69,0.38,0.54,0.31,0.7,0.97,-0.87,-9.54,-0.66,-3.27,0.0,0.0,0.0,-9.53,-0.2,-2.29
1738244963.633142,56523,0,0,,0.0,-0.7,0.38,0.52,0.31,0.72,1.13,-0.99,-9.82,-0.67,-2.81,0.0,0.0,0.0,-9.47,-0.41,-2.48
1738244963.6519744,56524,0,0,,0.0,-0.7,0.38,0.51,0.32,0.75,1.2,-1.03,-10.06,-0.21,-2.09,0.0,0.0,0.0,-9.4,-0.64,-2.7
1738244963.666639,56525,0,0,,0.0,-0.71,0.38,0.5,0.32,0.76,1.32,-1.06,-10.13,-0.5,-1.68,0.0,0.0,0.0,-9.36,-0.76,-2.81
1738244963.6838808,56526,0,0,,0.0,-0.72,0.38,0.49,0.33,0.69,1.49,-1.05,-10.5,-1.11,-2.05,0.0,0.0,0.0,-9.26,-0.99,-3.06
1738244963.7028928,56527,0,0,,0.0,-0.73,0.38,0.47,0.33,0.67,1.63,-1.02,-11.35,-0.61,-2.57,0.0,0.0,0.0,-9.13,-1.2,-3.35
1738244963.7171206,56528,0,0,,0.0,-0.73,0.38,0.46,0.33,0.52,1.94,-0.92,-11.98,-0.26,-3.2,0.0,0.0,0.0,-9.05,-1.3,-3.52
1738244963.733572,56529,0,0,,0.0,-0.74,0.38,0.44,0.33,0.16,2.25,-0.9,-12.14,1.26,-4.53,0.0,0.0,0.0,-8.87,-1.48,-3.89
1738244963.752947,56530,0,0,,0.0,-0.76,0.38,0.42,0.32,-0.15,2.39,-0.93,-11.09,-0.21,-4.31,0.0,0.0,0.0,-8.65,-1.61,-4.31
1738244963.7674181,56531,0,0,,0.0,-0.76,0.38,0.41,0.32,-0.5,2.6,-0.91,-11.16,-0.46,-4.14,0.0,0.0,0.0,-8.52,-1.67,-4.54
1738244963.7840233,56532,0,0,,0.0,-0.78,0.38,0.39,0.31,-0.54,2.57,-0.82,-11.69,-0.79,-3.07,0.0,0.0,0.0,-8.25,-1.76,-4.98
1738244963.80307,56533,0,0,,0.0,-0.79,0.38,0.37,0.3,-0.45,2.42,-0.74,-11.21,-1.35,-3.57,0.0,0.0,0.0,-8.0,-1.83,-5.36
1738244963.817518,56534,0,0,,0.0,-0.8,0.38,0.36,0.29,-0.15,1.99,-0.52,-10.75,-2.13,-4.25,0.0,0.0,0.0,-7.88,-1.86,-5.51
1738244963.8345456,56535,0,0,,0.0,-0.8,0.39,0.35,0.29,0.67,1.64,-0.36,-9.66,-2.76,-4.4,0.0,0.0,0.0,-7.68,-1.96,-5.76
1738244963.8528392,56536,0,0,,0.0,-0.8,0.39,0.33,0.3,1.21,1.46,-0.32,-8.46,-1.92,-4.28,0.0,0.0,0.0,-7.52,-2.17,-5.9
1738244963.868086,56537,0,0,,0.0,-0.8,0.4,0.32,0.3,1.79,1.01,-0.23,-7.6,-1.37,-4.49,0.0,0.0,0.0,-7.46,-2.29,-5.93
1738244963.8848138,56538,0,0,,0.0,-0.8,0.4,0.31,0.31,1.36,0.53,-0.21,-7.11,0.3,-3.41,0.0,0.0,0.0,-7.37,-2.49,-5.96
1738244963.903128,56539,0,0,,0.0,-0.8,0.4,0.31,0.32,0.95,0.25,-0.13,-6.1,0.72,-2.78,0.0,0.0,0.0,-7.35,-2.58,-5.94
1738244963.917225,56540,0,0,,0.0,-0.8,0.4,0.31,0.32,-0.08,-0.32,0.15,-5.61,0.27,-3.0,0.0,0.0,0.0,-7.38,-2.56,-5.92
1738244963.9349651,56541,0,0,,0.0,-0.8,0.4,0.32,0.32,-0.72,-0.81,0.4,-5.2,-0.59,-3.82,0.0,0.0,0.0,-7.47,-2.45,-5.85
1738244963.9529314,56542,0,0,,0.0,-0.8,0.4,0.33,0.31,-0.91,-1.04,0.51,-5.52,-1.4,-3.52,0.0,0.0,0.0,-7.63,-2.26,-5.72
1738244963.9677904,56543,0,0,,0.0,-0.79,0.4,0.34,0.31,-0.92,-1.51,0.72,-5.62,-2.05,-3.74,0.0,0.0,0.0,-7.73,-2.15,-5.63
1738244963.9847476,56544,0,0,,0.0,-0.79,0.4,0.36,0.31,-0.58,-1.93,0.87,-5.9,-2.13,-4.13,0.0,0.0,0.0,-7.96,-1.96,-5.38
1738244964.003157,56545,0,0,,0.0,-0.77,0.4,0.38,0.31,-0.41,-2.14,0.94,-6.32,-2.42,-4.49,0.0,0.0,0.0,-8.22,-1.77,-5.04
1738244964.0180876,56546,0,0,,0.0,-0.77,0.4,0.39,0.31,-0.09,-2.52,1.08,-6.44,-2.47,-4.6,0.0,0.0,0.0,-8.35,-1.68,-4.84
1738244964.0355396,56547,0,0,,0.0,-0.75,0.4,0.42,0.32,0.23,-2.86,1.21,-6.67,-2.82,-5.15,0.0,0.0,0.0,-8.64,-1.5,-4.38
1738244964.0530896,56548,0,0,,0.0,-0.73,0.4,0.44,0.33,0.56,-3.07,1.14,-7.03,-2.96,-5.73,0.0,0.0,0.0,-8.91,-1.34,-3.85
1738244964.067939,56549,0,0,,0.0,-0.72,0.4,0.45,0.34,0.6,-3.15,1.27,-7.4,-2.79,-5.87,0.0,0.0,0.0,-9.04,-1.25,-3.57
1738244964.0854073,56550,0,0,,0.0,-0.7,0.4,0.48,0.35,0.55,-3.22,1.39,-7.81,-2.99,-6.55,0.0,0.0,0.0,-9.28,-1.05,-2.98
1738244964.1031651,56551,0,0,,0.0,-0.68,0.4,0.5,0.36,0.38,-3.19,1.44,-8.11,-2.89,-7.01,0.0,0.0,0.0,-9.47,-0.81,-2.39
1738244964.1182106,56552,0,0,,0.0,-0.67,0.4,0.51,0.36,0.24,-3.12,1.44,-8.15,-2.76,-6.97,0.0,0.0,0.0,-9.55,-0.68,-2.11
1738244964.1357188,56553,0,0,,0.0,-0.65,0.4,0.54,0.36,-0.18,-2.96,1.42,-8.26,-2.52,-6.74,0.0,0.0,0.0,-9.67,-0.41,-1.55
1738244964.1534164,56554,0,0,,0.0,-0.63,0.39,0.56,0.36,-0.67,-2.77,1.36,-8.51,-2.69,-6.23,0.0,0.0,0.0,-9.75,-0.14,-1.02
1738244964.1680453,56555,0,0,,0.0,-0.62,0.39,0.57,0.36,-0.85,-2.68,1.32,-8.52,-2.78,-6.02,0.0,0.0,0.0,-9.77,-0.01,-0.77
1738244964.1858263,56556,0,0,,0.0,-0.61,0.38,0.6,0.36,-1.05,-2.54,1.23,-9.02,-3.11,-5.36,0.0,0.0,0.0,-9.79,0.23,-0.28
1738244964.203729,56557,0,0,,0.0,-0.59,0.38,0.62,0.35,-1.08,-2.42,1.13,-9.57,-3.14,-5.06,0.0,0.0,0.0,-9.79,0.45,0.18
1738244964.2181983,56558,0,0,,0.0,-0.58,0.37,0.63,0.35,-1.07,-2.36,1.09,-10.13,-3.01,-4.89,0.0,0.0,0.0,-9.78,0.55,0.41
1738244964.235873,56559,0,0,,0.0,-0.57,0.36,0.65,0.35,-1.06,-2.22,0.99,-10.37,-2.54,-4.88,0.0,0.0,0.0,-9.74,0.73,0.85
1738244964.2534344,56560,0,0,,0.0,-0.56,0.35,0.67,0.34,-1.16,-2.01,0.88,-10.0,-2.03,-4.89,0.0,0.0,0.0,-9.68,0.88,1.26
1738244964.2684767,56561,0,0,,0.0,-0.55,0.35,0.68,0.34,-1.22,-1.88,0.81,-9.89,-1.9,-4.9,0.0,0.0,0.0,-9.65,0.94,1.44
1738244964.2856781,56562,0,0,,0.0,-0.54,0.34,0.69,0.34,-1.31,-1.58,0.68,-9.93,-1.92,-4.91,0.0,0.0,0.0,-9.58,1.03,1.78
1738244964.303502,56563,0,0,,0.0,-0.54,0.33,0.7,0.33,-1.18,-1.24,0.57,-9.9,-2.07,-4.77,0.0,0.0,0.0,-9.52,1.09,2.05
1738244964.3181853,56564,0,0,,0.0,-0.53,0.33,0.71,0.33,-1.02,-1.07,0.53,-9.88,-2.08,-4.7,0.0,0.0,0.0,-9.49,1.12,2.16
1738244964.3359635,56565,0,0,,0.0,-0.54,0.32,0.71,0.32,-0.59,-0.73,0.45,-9.56,-2.11,-4.78,0.0,0.0,0.0,-9.5,1.1,2.15
1738244964.3537612,56566,0,0,,0.0,-0.53,0.32,0.72,0.32,-0.19,-0.4,0.37,-9.34,-2.1,-5.4,0.0,0.0,0.0,-9.47,1.16,2.24
1738244964.3684726,56567,0,0,,0.0,-0.53,0.32,0.72,0.32,-0.06,-0.22,0.32,-9.15,-1.76,-6.64,0.0,0.0,0.0,-9.46,1.18,2.26
1738244964.385567,56568,0,0,,0.0,-0.53,0.32,0.72,0.32,-0.02,0.23,0.19,-9.87,-1.58,-4.28,0.0,0.0,0.0,-9.46,1.23,2.24
1738244964.4035757,56569,0,0,,0.0,-0.53,0.33,0.71,0.32,0.32,0.53,0.03,-12.46,0.59,1.85,0.0,0.0,0.0,-9.48,1.25,2.15
1738244964.4181614,56570,0,0,,0.0,-0.53,0.33,0.71,0.32,0.37,0.44,0.01,-13.88,2.9,4.65,0.0,0.0,0.0,-9.49,1.25,2.1
1738244964.4357283,56571,0,0,,0.0,-0.54,0.33,0.71,0.31,-0.23,0.1,0.16,-11.44,3.36,0.87,0.0,0.0,0.0,-9.49,1.28,2.07
1738244964.4534032,56572,0,0,,0.0,-0.54,0.32,0.71,0.31,-1.08,0.18,0.13,-9.48,-2.09,-1.75,0.0,0.0,0.0,-9.49,1.27,2.07
1738244964.4684515,56573,0,0,,0.0,-0.54,0.32,0.72,0.3,-1.07,0.3,0.07,-10.5,-2.58,-0.51,0.0,0.0,0.0,-9.5,1.25,2.06
1738244964.4861906,56574,0,0,,0.0,-0.54,0.32,0.72,0.3,-0.36,0.27,0.11,-10.85,-2.32,0.91,0.0,0.0,0.0,-9.51,1.25,2.02
1738244964.503416,56575,0,0,,0.0,-0.54,0.32,0.72,0.3,0.04,0.13,0.2,-9.12,0.34,0.18,0.0,0.0,0.0,-9.51,1.28,1.99
1738244964.5178652,56576,0,0,,0.0,-0.54,0.32,0.72,0.3,0.08,0.13,0.24,-8.98,0.97,0.05,0.0,0.0,0.0,-9.51,1.31,1.97
1738244964.536421,56577,0,0,,0.0,-0.55,0.32,0.72,0.3,0.05,0.21,0.28,-9.75,1.3,0.84,0.0,0.0,0.0,-9.51,1.36,1.94
1738244964.5539103,56578,0,0,,0.0,-0.55,0.33,0.71,0.29,0.22,0.18,0.3,-9.55,1.27,0.64,0.0,0.0,0.0,-9.51,1.42,1.9
1738244964.567682,56579,0,0,,0.0,-0.54,0.33,0.71,0.29,0.28,0.15,0.3,-9.45,0.91,-0.06,0.0,0.0,0.0,-9.51,1.45,1.88
1738244964.586278,56580,0,0,,0.0,-0.54,0.33,0.71,0.29,0.42,0.19,0.3,-10.0,0.2,-0.31,0.0,0.0,0.0,-9.51,1.52,1.84
1738244964.6041486,56581,0,0,,0.0,-0.54,0.34,0.71,0.29,0.42,0.24,0.25,-10.04,0.95,1.0,0.0,0.0,0.0,-9.51,1.58,1.78
1738244964.6187994,56582,0,0,,0.0,-0.54,0.34,0.71,0.29,0.36,0.24,0.26,-9.64,1.06,0.52,0.0,0.0,0.0,-9.51,1.61,1.75
1738244964.636461,56583,0,0,,0.0,-0.54,0.34,0.71,0.29,0.13,0.26,0.28,-9.19,0.98,-0.88,0.0,0.0,0.0,-9.51,1.67,1.7
1738244964.6542647,56584,0,0,,0.0,-0.54,0.34,0.71,0.29,-0.11,0.32,0.27,-9.53,1.49,-0.49,0.0,0.0,0.0,-9.51,1.72,1.65
1738244964.668545,56585,0,0,,0.0,-0.55,0.35,0.71,0.29,-0.2,0.32,0.27,-10.05,1.42,0.45,0.0,0.0,0.0,-9.51,1.74,1.62
1738244964.686675,56586,0,0,,0.0,-0.55,0.35,0.71,0.28,-0.26,0.25,0.27,-9.99,1.01,-0.28,0.0,0.0,0.0,-9.51,1.78,1.58
1738244964.7042313,56587,0,0,,0.0,-0.55,0.35,0.71,0.28,-0.18,0.26,0.19,-9.97,0.66,-0.2,0.0,0.0,0.0,-9.51,1.81,1.54
1738244964.718701,56588,0,0,,0.0,-0.55,0.35,0.71,0.28,-0.08,0.27,0.15,-9.74,1.15,-0.61,0.0,0.0,0.0,-9.51,1.83,1.52
1738244964.736785,56589,0,0,,0.0,-0.55,0.35,0.71,0.27,0.07,0.26,0.13,-9.71,1.58,0.02,0.0,0.0,0.0,-9.51,1.85,1.47
1738244964.7546592,56590,0,0,,0.0,-0.55,0.35,0.71,0.27,0.13,0.26,0.07,-9.51,1.55,-0.15,0.0,0.0,0.0,-9.51,1.87,1.42
1738244964.7695415,56591,0,0,,0.0,-0.55,0.35,0.7,0.27,0.16,0.31,0.03,-9.19,1.58,-1.05,0.0,0.0,0.0,-9.52,1.88,1.38
1738244964.7879949,56592,0,0,,0.0,-0.56,0.35,0.7,0.27,0.18,0.4,-0.06,-9.54,1.45,-0.59,0.0,0.0,0.0,-9.53,1.87,1.31
1738244964.8045318,56593,0,0,,0.0,-0.56,0.36,0.7,0.27,0.27,0.37,-0.09,-9.4,1.25,-0.4,0.0,0.0,0.0,-9.54,1.86,1.23
1738244964.8196619,56594,0,0,,0.0,-0.56,0.36,0.7,0.27,0.26,0.36,-0.1,-9.56,1.07,-0.13,0.0,0.0,0.0,-9.55,1.86,1.19
1738244964.8381793,56595,0,0,,0.0,-0.56,0.36,0.69,0.28,0.29,0.42,-0.14,-9.37,1.08,-1.3,0.0,0.0,0.0,-9.56,1.84,1.11
1738244964.855077,56596,0,0,,0.0,-0.56,0.36,0.69,0.28,0.27,0.43,-0.16,-10.06,1.25,-0.12,0.0,0.0,0.0,-9.58,1.82,1.01
1738244964.869903,56597,0,0,,0.0,-0.56,0.36,0.69,0.28,0.26,0.38,-0.14,-9.94,1.38,-0.34,0.0,0.0,0.0,-9.58,1.81,0.98
1738244964.8882027,56598,0,0,,0.0,-0.57,0.36,0.68,0.28,0.2,0.32,-0.12,-9.3,0.86,-1.67,0.0,0.0,0.0,-9.59,1.79,0.91
1738244964.9050837,56599,0,0,,0.0,-0.57,0.37,0.68,0.28,0.17,0.39,-0.16,-9.87,0.9,-0.65,0.0,0.0,0.0,-9.6,1.76,0.83
1738244964.919837,56600,0,0,,0.0,-0.57,0.37,0.68,0.28,0.14,0.39,-0.15,-9.99,1.1,-0.15,0.0,0.0,0.0,-9.61,1.75,0.79
1738244964.9380555,56601,0,0,,0.0,-0.57,0.37,0.68,0.28,0.09,0.34,-0.13,-9.57,1.39,-0.71,0.0,0.0,0.0,-9.62,1.73,0.72
1738244964.9550424,56602,0,0,,0.0,-0.58,0.37,0.68,0.28,0.03,0.38,-0.15,-9.17,1.09,-1.58,0.0,0.0,0.0,-9.63,1.7,0.65
1738244964.9700706,56603,0,0,,0.0,-0.58,0.37,0.67,0.28,-0.03,0.44,-0.18,-9.63,1.14,-0.81,0.0,0.0,0.0,-9.64,1.68,0.61
1738244964.9886622,56604,0,0,,0.0,-0.58,0.37,0.67,0.28,-0.04,0.45,-0.18,-10.15,1.22,-0.35,0.0,0.0,0.0,-9.65,1.65,0.53
1738244965.0061922,56605,0,0,,0.0,-0.58,0.37,0.67,0.28,-0.01,0.4,-0.14,-9.78,0.68,-0.69,0.0,0.0,0.0,-9.66,1.62,0.45
1738244965.020591,56606,0,0,,0.0,-0.59,0.37,0.67,0.28,0.01,0.41,-0.11,-9.27,0.47,-2.05,0.0,0.0,0.0,-9.66,1.61,0.42
1738244965.0392547,56607,0,0,,0.0,-0.59,0.37,0.66,0.28,-0.01,0.47,-0.13,-9.51,1.06,-1.98,0.0,0.0,0.0,-9.67,1.58,0.33
1738244965.055898,56608,0,0,,0.0,-0.59,0.37,0.66,0.28,-0.01,0.45,-0.14,-9.66,1.29,-1.24,0.0,0.0,0.0,-9.67,1.56,0.24
1738244965.0708508,56609,0,0,,0.0,-0.6,0.37,0.66,0.27,-0.03,0.42,-0.12,-9.39,0.64,-1.34,0.0,0.0,0.0,-9.68,1.55,0.2
1738244965.089358,56610,0,0,,0.0,-0.6,0.37,0.65,0.27,-0.01,0.46,-0.12,-9.43,0.32,-1.95,0.0,0.0,0.0,-9.69,1.5,0.07
1738244965.1064656,56611,0,0,,0.0,-0.6,0.37,0.65,0.27,0.03,0.5,-0.17,-9.77,0.49,-1.87,0.0,0.0,0.0,-9.69,1.47,-0.02
1738244965.1212766,56612,0,0,,0.0,-0.61,0.37,0.65,0.27,0.09,0.46,-0.17,-10.13,0.88,-0.82,0.0,0.0,0.0,-9.69,1.46,-0.06
1738244965.1398487,56613,0,0,,0.0,-0.61,0.37,0.65,0.27,0.15,0.4,-0.13,-9.62,0.87,-1.52,0.0,0.0,0.0,-9.7,1.43,-0.14
1738244965.1566658,56614,0,0,,0.0,-0.61,0.37,0.64,0.27,0.13,0.46,-0.18,-9.81,0.71,-2.18,0.0,0.0,0.0,-9.7,1.4,-0.23
1738244965.171329,56615,0,0,,0.0,-0.61,0.37,0.64,0.27,0.13,0.46,-0.2,-9.59,0.43,-2.26,0.0,0.0,0.0,-9.7,1.38,-0.28
1738244965.1895995,56616,0,0,,0.0,-0.62,0.37,0.64,0.27,0.19,0.42,-0.19,-9.8,1.15,-1.47,0.0,0.0,0.0,-9.7,1.34,-0.36
1738244965.2061486,56617,0,0,,0.0,-0.62,0.37,0.63,0.28,0.21,0.43,-0.19,-9.18,0.53,-2.83,0.0,0.0,0.0,-9.7,1.3,-0.45
1738244965.2214553,56618,0,0,,0.0,-0.62,0.38,0.63,0.28,0.2,0.47,-0.22,-9.43,0.14,-2.63,0.0,0.0,0.0,-9.7,1.28,-0.49
1738244965.2399433,56619,0,0,,0.0,-0.62,0.38,0.63,0.28,0.22,0.5,-0.26,-9.83,0.74,-1.65,0.0,0.0,0.0,-9.7,1.23,-0.59
1738244965.2568352,56620,0,0,,0.0,-0.63,0.38,0.62,0.28,0.23,0.46,-0.25,-9.39,0.88,-2.11,0.0,0.0,0.0,-9.71,1.18,-0.69
1738244965.271333,56621,0,0,,0.0,-0.63,0.38,0.62,0.28,0.23,0.49,-0.27,-9.3,0.72,-2.75,0.0,0.0,0.0,-9.7,1.15,-0.74
1738244965.2902052,56622,0,0,,0.0,-0.63,0.38,0.62,0.28,0.21,0.59,-0.32,-9.86,0.41,-2.03,0.0,0.0,0.0,-9.7,1.09,-0.85
1738244965.3069243,56623,0,0,,0.0,-0.64,0.38,0.61,0.28,0.22,0.61,-0.35,-9.97,0.85,-1.24,0.0,0.0,0.0,-9.7,1.02,-0.96
1738244965.3217773,56624,0,0,,0.0,-0.64,0.38,0.6,0.28,0.19,0.59,-0.36,-9.37,0.69,-2.22,0.0,0.0,0.0,-9.7,0.99,-1.02
1738244965.3403285,56625,0,0,,0.0,-0.64,0.38,0.6,0.28,0.15,0.67,-0.4,-9.37,0.12,-2.94,0.0,0.0,0.0,-9.69,0.91,-1.15
1738244965.3567219,56626,0,0,,0.0,-0.65,0.38,0.59,0.28,0.05,0.77,-0.52,-10.75,1.38,-3.25,0.0,0.0,0.0,-9.68,0.82,-1.29
1738244965.371854,56627,0,0,,0.0,-0.66,0.38,0.59,0.28,-0.0,0.8,-0.53,-11.46,0.15,-1.49,0.0,0.0,0.0,-9.67,0.77,-1.36
1738244965.3910177,56628,0,0,,0.0,-0.66,0.38,0.58,0.28,0.14,0.77,-0.52,-9.81,-0.64,-2.91,0.0,0.0,0.0,-9.66,0.67,-1.51
1738244965.4072094,56629,0,0,,0.0,-0.66,0.38,0.58,0.29,0.18,0.85,-0.56,-10.41,-0.83,-2.99,0.0,0.0,0.0,-9.64,0.56,-1.67
1738244965.4221487,56630,0,0,,0.0,-0.67,0.38,0.57,0.29,0.11,0.88,-0.61,-10.5,-0.48,-2.99,0.0,0.0,0.0,-9.63,0.5,-1.75
1738244965.4406903,56631,0,0,,0.0,-0.68,0.38,0.57,0.29,-0.06,0.87,-0.67,-10.21,-0.34,-2.65,0.0,0.0,0.0,-9.6,0.38,-1.91
1738244965.4573736,56632,0,0,,0.0,-0.68,0.37,0.56,0.29,-0.09,0.89,-0.7,-10.17,-0.55,-2.64,0.0,0.0,0.0,-9.57,0.26,-2.08
1738244965.4722412,56633,0,0,,0.0,-0.69,0.37,0.55,0.29,-0.06,0.92,-0.74,-9.75,-0.6,-3.82,0.0,0.0,0.0,-9.54,0.12,-2.25
1738244965.4906912,56634,0,0,,0.0,-0.69,0.37,0.55,0.29,0.15,1.0,-0.8,-9.78,-0.36,-3.14,0.0,0.0,0.0,-9.52,0.04,-2.34
1738244965.5069916,56635,0,0,,0.0,-0.7,0.37,0.54,0.29,0.36,1.03,-0.83,-9.42,0.21,-2.94,0.0,0.0,0.0,-9.47,-0.12,-2.53
1738244965.5221374,56636,0,0,,0.0,-0.71,0.37,0.52,0.29,0.42,1.07,-0.85,-9.54,0.0,-2.65,0.0,0.0,0.0,-9.41,-0.3,-2.73
1738244965.5406966,56637,0,0,,0.0,-0.71,0.37,0.52,0.3,0.48,1.21,-0.92,-9.2,-0.33,-3.44,0.0,0.0,0.0,-9.37,-0.39,-2.84
1738244965.5575156,56638,0,0,,0.0,-0.72,0.37,0.5,0.3,0.55,1.4,-1.01,-9.71,-0.65,-2.1,0.0,0.0,0.0,-9.28,-0.6,-3.08
1738244965.572425,56639,0,0,,0.0,-0.73,0.37,0.49,0.3,0.63,1.48,-1.0,-10.07,-0.41,-1.41,0.0,0.0,0.0,-9.18,-0.82,-3.34
1738244965.590985,56640,0,0,,0.0,-0.74,0.37,0.48,0.3,0.69,1.62,-0.95,-9.94,-1.06,-1.92,0.0,0.0,0.0,-9.12,-0.93,-3.48
1738244965.607837,56641,0,0,,0.0,-0.74,0.37,0.46,0.31,0.95,1.87,-0.85,-10.18,-1.5,-2.09,0.0,0.0,0.0,-8.97,-1.14,-3.77
1738244965.6219797,56642,0,0,,0.0,-0.76,0.37,0.44,0.31,0.94,2.04,-0.86,-10.87,-1.08,-3.09,0.0,0.0,0.0,-8.79,-1.36,-4.12
1738244965.6410887,56643,0,0,,0.0,-0.76,0.37,0.43,0.31,0.81,2.44,-0.92,-13.13,-0.13,-3.41,0.0,0.0,0.0,-8.67,-1.47,-4.32
1738244965.657729,56644,0,0,,0.0,-0.77,0.38,0.41,0.31,0.24,2.63,-1.0,-13.11,-0.09,-4.88,0.0,0.0,0.0,-8.42,-1.67,-4.73
1738244965.6725538,56645,0,0,,0.0,-0.79,0.37,0.38,0.3,-0.05,2.69,-1.02,-12.58,-0.5,-5.41,0.0,0.0,0.0,-8.27,-1.75,-4.95
1738244965.691578,56646,0,0,,0.0,-0.8,0.37,0.37,0.29,-0.27,2.64,-0.94,-11.07,-0.11,-4.98,0.0,0.0,0.0,-7.97,-1.88,-5.38
1738244965.7081597,56647,0,0,,0.0,-0.81,0.37,0.35,0.29,-0.23,2.3,-0.74,-10.33,-1.4,-3.72,0.0,0.0,0.0,-7.68,-1.97,-5.75
1738244965.7230148,56648,0,0,,0.0,-0.82,0.37,0.34,0.28,0.03,2.06,-0.62,-10.58,-1.56,-2.81,0.0,0.0,0.0,-7.44,-2.08,-6.02
1738244965.7411745,56649,0,0,,0.0,-0.82,0.37,0.32,0.28,0.58,1.38,-0.41,-9.91,-0.91,-2.67,0.0,0.0,0.0,-7.35,-2.14,-6.11
1738244965.7576768,56650,0,0,,0.0,-0.82,0.37,0.32,0.29,0.66,0.77,-0.23,-8.17,0.22,-3.22,0.0,0.0,0.0,-7.23,-2.26,-6.21
1738244965.7729802,56651,0,0,,0.0,-0.82,0.38,0.31,0.29,0.61,0.49,-0.11,-7.7,0.41,-3.27,0.0,0.0,0.0,-7.19,-2.33,-6.24
1738244965.7915776,56652,0,0,,0.0,-0.82,0.38,0.32,0.29,0.27,-0.07,0.16,-6.55,-0.16,-3.56,0.0,0.0,0.0,-7.2,-2.33,-6.23
1738244965.808141,56653,0,0,,0.0,-0.82,0.38,0.32,0.29,0.06,-0.64,0.39,-6.06,-0.49,-3.64,0.0,0.0,0.0,-7.27,-2.3,-6.15
1738244965.8231156,56654,0,0,,0.0,-0.81,0.38,0.33,0.29,-0.01,-0.91,0.49,-5.82,-0.45,-3.76,0.0,0.0,0.0,-7.42,-2.22,-6.01
1738244965.8419437,56655,0,0,,0.0,-0.81,0.38,0.34,0.29,-0.13,-1.4,0.67,-5.76,-1.01,-4.0,0.0,0.0,0.0,-7.51,-2.16,-5.91
1738244965.8584745,56656,0,0,,0.0,-0.8,0.38,0.35,0.3,-0.12,-1.84,0.83,-5.9,-1.18,-4.21,0.0,0.0,0.0,-7.74,-2.03,-5.66
1738244965.8736353,56657,0,0,,0.0,-0.79,0.38,0.37,0.3,-0.09,-2.04,0.9,-5.97,-1.29,-4.41,0.0,0.0,0.0,-8.0,-1.88,-5.34
1738244965.8921566,56658,0,0,,0.0,-0.78,0.38,0.39,0.3,-0.08,-2.39,1.03,-6.16,-1.45,-4.45,0.0,0.0,0.0,-8.14,-1.8,-5.15
1738244965.908739,56659,0,0,,0.0,-0.77,0.38,0.4,0.31,-0.1,-2.72,1.13,-6.64,-1.47,-4.37,0.0,0.0,0.0,-8.43,-1.61,-4.73
1738244965.923405,56660,0,0,,0.0,-0.76,0.38,0.43,0.31,-0.11,-2.88,1.19,-6.91,-1.57,-4.47,0.0,0.0,0.0,-8.72,-1.4,-4.24
1738244965.942072,56661,0,0,,0.0,-0.74,0.38,0.46,0.32,-0.02,-3.14,1.15,-7.41,-1.97,-5.02,0.0,0.0,0.0,-8.86,-1.3,-3.98
