Time,header.seq,header.stamp.secs,header.stamp.nsecs,header.frame_id,time_stamp,quat_x,quat_y,quat_z,quat_w,gyro_x,gyro_y,gyro_z,accel_x,accel_y,accel_z,euler_x,euler_y,euler_z,gravity_x,gravity_y,gravity_z
1738246876.6780005,4810,0,0,,0.0,-0.28,0.25,0.81,0.46,-0.19,2.38,-0.51,-7.08,1.46,7.16,0.0,0.0,0.0,-6.67,1.45,7.03
1738246876.6951828,4811,0,0,,0.0,-0.3,0.26,0.8,0.46,-0.22,2.52,-0.57,-5.58,1.19,7.09,0.0,0.0,0.0,-6.84,1.4,6.87
1738246876.7094424,4812,0,0,,0.0,-0.31,0.26,0.79,0.45,-0.21,2.69,-0.6,-6.53,1.47,7.11,0.0,0.0,0.0,-7.2,1.29,6.52
1738246876.7270577,4813,0,0,,0.0,-0.34,0.27,0.78,0.45,-0.19,2.82,-0.64,-6.6,1.32,6.64,0.0,0.0,0.0,-7.58,1.17,6.1
1738246876.7452598,4814,0,0,,0.0,-0.37,0.28,0.77,0.45,-0.14,3.19,-0.73,-7.33,1.5,6.67,0.0,0.0,0.0,-7.77,1.11,5.87
1738246876.7597795,4815,0,0,,0.0,-0.38,0.29,0.76,0.45,-0.19,3.85,-0.89,-8.5,0.99,7.99,0.0,0.0,0.0,-8.18,0.96,5.31
1738246876.7774575,4816,0,0,,0.0,-0.42,0.31,0.73,0.44,-0.09,4.36,-0.97,-9.58,1.91,8.4,0.0,0.0,0.0,-8.64,0.8,4.56
1738246876.79493,4817,0,0,,0.0,-0.46,0.32,0.71,0.43,0.04,5.15,-1.06,-10.29,1.7,8.48,0.0,0.0,0.0,-8.86,0.71,4.12
1738246876.8093681,4818,0,0,,0.0,-0.48,0.33,0.69,0.43,-0.06,5.69,-1.68,-11.08,2.53,9.43,0.0,0.0,0.0,-9.27,0.44,3.15
1738246876.827709,4819,0,0,,0.0,-0.53,0.35,0.65,0.42,-0.03,5.97,-1.89,-11.9,4.45,12.42,0.0,0.0,0.0,-9.59,0.09,2.03
1738246876.8451123,4820,0,0,,0.0,-0.57,0.36,0.61,0.41,0.33,6.33,-1.89,-14.66,1.9,14.77,0.0,0.0,0.0,-9.69,-0.07,1.44
1738246876.860242,4821,0,0,,0.0,-0.58,0.37,0.6,0.41,0.38,3.88,-1.09,-19.4,12.93,13.53,0.0,0.0,0.0,-9.78,-0.32,0.55
1738246876.879054,4822,0,0,,0.0,-0.59,0.37,0.59,0.41,-0.39,1.96,-0.73,-20.2,10.02,17.29,0.0,0.0,0.0,-9.79,-0.45,0.32
1738246876.8958302,4823,0,0,,0.0,-0.6,0.36,0.59,0.4,-1.9,0.45,-0.49,-5.26,2.06,6.43,0.0,0.0,0.0,-9.78,-0.55,0.22
1738246876.9108791,4824,0,0,,0.0,-0.6,0.35,0.59,0.4,-0.81,0.09,-0.47,-7.66,0.72,8.36,0.0,0.0,0.0,-9.78,-0.6,0.21
1738246876.9289222,4825,0,0,,0.0,-0.61,0.34,0.6,0.4,-0.83,-0.34,-0.67,-6.23,-0.73,7.99,0.0,0.0,0.0,-9.77,-0.75,0.31
1738246876.945928,4826,0,0,,0.0,-0.6,0.33,0.6,0.41,-0.57,-1.29,-0.92,-4.61,-0.2,7.2,0.0,0.0,0.0,-9.74,-0.93,0.59
1738246876.960782,4827,0,0,,0.0,-0.6,0.32,0.61,0.41,-0.32,-2.08,-0.91,-3.6,0.89,5.92,0.0,0.0,0.0,-9.72,-1.02,0.78
1738246876.9794285,4828,0,0,,0.0,-0.59,0.3,0.62,0.42,-0.23,-2.33,-0.8,-3.01,1.35,4.75,0.0,0.0,0.0,-9.65,-1.15,1.23
1738246876.9960608,4829,0,0,,0.0,-0.57,0.29,0.64,0.43,-0.01,-2.7,-0.44,-3.38,1.67,5.0,0.0,0.0,0.0,-9.56,-1.22,1.76
1738246877.0112846,4830,0,0,,0.0,-0.56,0.28,0.64,0.44,0.12,-3.17,-0.2,-3.12,0.95,4.87,0.0,0.0,0.0,-9.5,-1.24,2.05
1738246877.029039,4831,0,0,,0.0,-0.54,0.27,0.66,0.45,0.22,-3.4,-0.11,-3.52,1.13,4.94,0.0,0.0,0.0,-9.34,-1.24,2.69
1738246877.046082,4832,0,0,,0.0,-0.51,0.26,0.68,0.46,0.35,-3.75,0.12,-3.54,1.36,4.93,0.0,0.0,0.0,-9.12,-1.18,3.39
1738246877.0609448,4833,0,0,,0.0,-0.5,0.25,0.69,0.46,0.44,-4.09,0.44,-5.17,0.84,6.38,0.0,0.0,0.0,-8.98,-1.13,3.75
1738246877.0801132,4834,0,0,,0.0,-0.46,0.24,0.71,0.47,0.5,-4.29,0.55,-5.86,-0.56,6.81,0.0,0.0,0.0,-8.65,-0.98,4.51
1738246877.0966554,4835,0,0,,0.0,-0.43,0.22,0.73,0.48,0.66,-4.61,0.57,-6.77,0.07,7.16,0.0,0.0,0.0,-8.21,-0.83,5.28
1738246877.111416,4836,0,0,,0.0,-0.41,0.21,0.74,0.49,0.7,-4.81,0.68,-7.49,1.33,7.02,0.0,0.0,0.0,-7.96,-0.74,5.66
1738246877.1298308,4837,0,0,,0.0,-0.37,0.2,0.77,0.49,0.73,-4.81,0.91,-9.07,1.26,7.02,0.0,0.0,0.0,-7.42,-0.5,6.38
1738246877.146942,4838,0,0,,0.0,-0.33,0.19,0.79,0.49,0.76,-4.6,1.37,-9.56,0.68,7.18,0.0,0.0,0.0,-6.84,-0.2,7.01
1738246877.1619453,4839,0,0,,0.0,-0.31,0.19,0.8,0.49,0.85,-4.32,1.62,-11.19,-0.55,8.72,0.0,0.0,0.0,-6.54,-0.03,7.29
1738246877.1806355,4840,0,0,,0.0,-0.27,0.18,0.81,0.49,0.88,-4.29,1.63,-13.45,-2.08,11.03,0.0,0.0,0.0,-5.91,0.28,7.81
1738246877.1971943,4841,0,0,,0.0,-0.22,0.17,0.83,0.49,0.93,-4.44,1.45,-13.68,-2.36,10.89,0.0,0.0,0.0,-5.2,0.57,8.29
1738246877.2123208,4842,0,0,,0.0,-0.2,0.16,0.84,0.49,0.9,-4.56,1.14,-14.59,-1.99,10.7,0.0,0.0,0.0,-4.82,0.7,8.5
1738246877.231046,4843,0,0,,0.0,-0.16,0.15,0.85,0.49,0.88,-4.57,1.01,-14.91,-1.07,9.83,0.0,0.0,0.0,-4.04,0.93,8.88
1738246877.2474031,4844,0,0,,0.0,-0.12,0.14,0.86,0.49,0.83,-4.36,0.88,-14.84,-0.79,9.05,0.0,0.0,0.0,-3.28,1.14,9.16
1738246877.2624059,4845,0,0,,0.0,-0.1,0.13,0.86,0.49,0.89,-3.84,0.74,-14.36,-2.36,7.24,0.0,0.0,0.0,-2.93,1.24,9.27
1738246877.2809007,4846,0,0,,0.0,-0.07,0.12,0.86,0.49,0.89,-3.52,0.59,-13.42,-2.91,5.69,0.0,0.0,0.0,-2.31,1.43,9.42
1738246877.2976909,4847,0,0,,0.0,-0.04,0.12,0.86,0.49,0.83,-2.76,0.29,-12.91,-2.01,3.89,0.0,0.0,0.0,-1.84,1.58,9.49
1738246877.31229,4848,0,0,,0.0,-0.03,0.12,0.86,0.49,0.64,-1.81,0.23,-11.71,-1.02,1.62,0.0,0.0,0.0,-1.67,1.64,9.52
1738246877.3309314,4849,0,0,,0.0,-0.02,0.12,0.87,0.49,0.55,-1.27,0.24,-12.2,-1.15,1.08,0.0,0.0,0.0,-1.48,1.75,9.53
1738246877.3477442,4850,0,0,,0.0,-0.02,0.12,0.87,0.49,0.35,-0.33,0.18,-11.94,-1.26,1.23,0.0,0.0,0.0,-1.45,1.8,9.52
1738246877.3621168,4851,0,0,,0.0,-0.02,0.12,0.87,0.49,-0.06,0.46,0.11,-11.64,-1.03,1.47,0.0,0.0,0.0,-1.49,1.79,9.52
1738246877.3809772,4852,0,0,,0.0,-0.03,0.12,0.87,0.48,-0.26,0.75,0.16,-12.04,0.0,3.2,0.0,0.0,0.0,-1.63,1.74,9.51
1738246877.3974485,4853,0,0,,0.0,-0.04,0.12,0.87,0.48,-0.6,1.08,0.36,-10.46,-0.56,2.86,0.0,0.0,0.0,-1.84,1.64,9.49
1738246877.412941,4854,0,0,,0.0,-0.05,0.12,0.87,0.47,-0.59,1.25,0.45,-5.14,0.28,9.3,0.0,0.0,0.0,-1.94,1.59,9.47
1738246877.431058,4855,0,0,,0.0,-0.06,0.12,0.87,0.47,-0.21,1.05,0.27,24.39,7.79,33.74,0.0,0.0,0.0,-2.18,1.57,9.43
1738246877.447802,4856,0,0,,0.0,-0.08,0.13,0.87,0.47,-0.46,1.82,-0.16,-7.11,-1.05,2.62,0.0,0.0,0.0,-2.53,1.54,9.34
1738246877.4624302,4857,0,0,,0.0,-0.08,0.14,0.87,0.47,0.3,1.67,0.4,-14.87,2.13,7.3,0.0,0.0,0.0,-2.67,1.57,9.3
1738246877.4810555,4858,0,0,,0.0,-0.09,0.15,0.87,0.46,0.33,1.32,0.42,-4.67,-1.48,13.85,0.0,0.0,0.0,-2.89,1.64,9.22
1738246877.4978025,4859,0,0,,0.0,-0.1,0.15,0.87,0.46,0.46,0.87,-0.1,-5.12,-0.78,9.51,0.0,0.0,0.0,-3.03,1.75,9.15
1738246877.512649,4860,0,0,,0.0,-0.1,0.16,0.87,0.46,0.93,0.81,0.15,-3.73,2.64,11.33,0.0,0.0,0.0,-3.1,1.84,9.11
1738246877.5318491,4861,0,0,,0.0,-0.1,0.17,0.87,0.46,0.95,0.63,0.28,-1.84,2.31,7.88,0.0,0.0,0.0,-3.2,2.03,9.04
1738246877.5483165,4862,0,0,,0.0,-0.1,0.18,0.86,0.46,1.0,0.75,0.25,-3.68,2.22,8.34,0.0,0.0,0.0,-3.32,2.22,8.95
1738246877.5627854,4863,0,0,,0.0,-0.1,0.19,0.86,0.46,0.77,0.71,0.15,-2.59,4.6,9.96,0.0,0.0,0.0,-3.38,2.29,8.91
1738246877.5813923,4864,0,0,,0.0,-0.1,0.2,0.86,0.46,0.48,0.7,0.1,-2.74,4.03,7.03,0.0,0.0,0.0,-3.5,2.37,8.84
1738246877.5980854,4865,0,0,,0.0,-0.11,0.2,0.86,0.45,0.2,0.87,0.01,-2.83,2.19,7.55,0.0,0.0,0.0,-3.65,2.39,8.78
1738246877.6132305,4866,0,0,,0.0,-0.11,0.2,0.86,0.45,0.04,0.71,-0.05,-3.71,2.41,8.76,0.0,0.0,0.0,-3.71,2.39,8.75
1738246877.6323001,4867,0,0,,0.0,-0.12,0.2,0.86,0.45,-0.02,0.68,-0.11,-4.07,3.54,8.57,0.0,0.0,0.0,-3.84,2.37,8.7
1738246877.6484773,4868,0,0,,0.0,-0.13,0.2,0.86,0.45,-0.3,0.71,-0.26,-4.86,3.25,8.74,0.0,0.0,0.0,-3.97,2.27,8.67
1738246877.6636887,4869,0,0,,0.0,-0.13,0.2,0.86,0.46,-0.67,0.65,-0.44,-4.81,2.93,9.13,0.0,0.0,0.0,-4.03,2.2,8.66
1738246877.682125,4870,0,0,,0.0,-0.14,0.2,0.86,0.46,-0.69,0.6,-0.45,-4.86,1.78,9.55,0.0,0.0,0.0,-4.15,2.05,8.64
1738246877.6985753,4871,0,0,,0.0,-0.15,0.2,0.85,0.46,-0.59,0.48,-0.39,-5.23,1.51,9.17,0.0,0.0,0.0,-4.24,1.93,8.62
1738246877.7137232,4872,0,0,,0.0,-0.15,0.19,0.85,0.46,-0.43,0.34,-0.28,-4.52,0.88,8.98,0.0,0.0,0.0,-4.27,1.88,8.62
1738246877.7319992,4873,0,0,,0.0,-0.16,0.19,0.85,0.46,-0.33,0.31,-0.2,-4.46,1.02,8.89,0.0,0.0,0.0,-4.32,1.82,8.6
1738246877.7481282,4874,0,0,,0.0,-0.16,0.19,0.85,0.46,-0.15,0.25,-0.07,-4.98,0.98,8.82,0.0,0.0,0.0,-4.37,1.79,8.59
1738246877.7639883,4875,0,0,,0.0,-0.16,0.19,0.85,0.46,-0.08,0.19,-0.02,-3.79,1.58,8.7,0.0,0.0,0.0,-4.38,1.79,8.58
1738246877.7822754,4876,0,0,,0.0,-0.16,0.19,0.85,0.46,-0.07,0.2,-0.02,-4.01,1.76,8.17,0.0,0.0,0.0,-4.42,1.77,8.57
1738246877.798616,4877,0,0,,0.0,-0.16,0.19,0.85,0.46,-0.07,0.24,-0.03,-4.38,1.61,8.04,0.0,0.0,0.0,-4.46,1.76,8.55
1738246877.8136954,4878,0,0,,0.0,-0.16,0.19,0.85,0.46,-0.05,0.24,-0.03,-3.36,1.85,8.37,0.0,0.0,0.0,-4.48,1.75,8.54
1738246877.8322685,4879,0,0,,0.0,-0.17,0.19,0.85,0.46,-0.03,0.27,-0.03,-4.93,1.69,8.39,0.0,0.0,0.0,-4.53,1.75,8.51
1738246877.8488727,4880,0,0,,0.0,-0.17,0.2,0.85,0.46,0.01,0.31,-0.03,-5.01,1.66,8.57,0.0,0.0,0.0,-4.58,1.75,8.49
1738246877.8638124,4881,0,0,,0.0,-0.17,0.2,0.85,0.46,0.12,0.27,-0.02,-4.12,1.85,8.95,0.0,0.0,0.0,-4.6,1.76,8.47
1738246877.8821278,4882,0,0,,0.0,-0.17,0.2,0.85,0.46,0.12,0.31,-0.04,-4.99,1.59,8.43,0.0,0.0,0.0,-4.65,1.77,8.44
1738246877.8984747,4883,0,0,,0.0,-0.17,0.2,0.85,0.46,0.03,0.31,-0.1,-5.57,1.7,8.32,0.0,0.0,0.0,-4.7,1.76,8.42
1738246877.913986,4884,0,0,,0.0,-0.18,0.2,0.85,0.46,-0.04,0.2,-0.08,-5.42,1.18,8.75,0.0,0.0,0.0,-4.72,1.75,8.41
1738246877.932377,4885,0,0,,0.0,-0.18,0.2,0.85,0.46,0.0,0.15,-0.05,-5.0,1.34,8.55,0.0,0.0,0.0,-4.74,1.75,8.4
1738246877.9493384,4886,0,0,,0.0,-0.18,0.2,0.85,0.46,0.03,0.1,-0.02,-5.07,1.74,8.65,0.0,0.0,0.0,-4.75,1.76,8.39
1738246877.9639816,4887,0,0,,0.0,-0.18,0.2,0.85,0.46,0.03,0.07,-0.01,-4.88,1.86,8.53,0.0,0.0,0.0,-4.76,1.76,8.38
1738246877.9823477,4888,0,0,,0.0,-0.18,0.2,0.85,0.46,0.03,0.05,-0.01,-4.97,1.76,8.26,0.0,0.0,0.0,-4.77,1.76,8.38
1738246877.9991455,4889,0,0,,0.0,-0.18,0.2,0.85,0.46,0.03,0.06,-0.02,-4.83,1.74,8.49,0.0,0.0,0.0,-4.78,1.77,8.37
1738246878.0138068,4890,0,0,,0.0,-0.18,0.2,0.85,0.46,0.04,0.06,-0.02,-4.78,1.88,8.46,0.0,0.0,0.0,-4.78,1.77,8.37
1738246878.0321536,4891,0,0,,0.0,-0.18,0.2,0.85,0.46,0.03,0.07,-0.02,-4.91,1.68,8.27,0.0,0.0,0.0,-4.8,1.77,8.36
1738246878.0495527,4892,0,0,,0.0,-0.18,0.2,0.85,0.46,0.04,0.06,-0.02,-4.98,1.6,8.4,0.0,0.0,0.0,-4.8,1.78,8.35
1738246878.0636654,4893,0,0,,0.0,-0.18,0.2,0.85,0.46,0.04,0.05,-0.03,-4.86,1.72,8.4,0.0,0.0,0.0,-4.81,1.78,8.35
1738246878.0823336,4894,0,0,,0.0,-0.18,0.21,0.85,0.46,0.04,0.05,-0.03,-5.0,1.47,8.24,0.0,0.0,0.0,-4.82,1.78,8.34
1738246878.0997498,4895,0,0,,0.0,-0.18,0.21,0.85,0.46,0.04,0.04,-0.04,-5.48,1.75,8.11,0.0,0.0,0.0,-4.83,1.78,8.34
1738246878.1138225,4896,0,0,,0.0,-0.18,0.21,0.85,0.46,0.03,0.03,-0.05,-4.64,1.97,8.45,0.0,0.0,0.0,-4.83,1.78,8.34
1738246878.132502,4897,0,0,,0.0,-0.18,0.21,0.84,0.46,0.03,0.03,-0.05,-5.19,1.69,8.09,0.0,0.0,0.0,-4.84,1.78,8.33
1738246878.1494827,4898,0,0,,0.0,-0.18,0.21,0.84,0.46,0.03,0.03,-0.06,-4.42,1.8,8.49,0.0,0.0,0.0,-4.84,1.78,8.33
1738246878.1642194,4899,0,0,,0.0,-0.18,0.21,0.84,0.46,0.03,0.03,-0.06,-4.46,1.82,8.47,0.0,0.0,0.0,-4.85,1.78,8.33
1738246878.1822248,4900,0,0,,0.0,-0.18,0.21,0.84,0.46,0.04,0.03,-0.07,-5.78,1.4,8.06,0.0,0.0,0.0,-4.86,1.78,8.32
1738246878.1992643,4901,0,0,,0.0,-0.18,0.21,0.84,0.46,0.04,0.04,-0.08,-4.14,2.21,8.46,0.0,0.0,0.0,-4.87,1.78,8.32
1738246878.2143595,4902,0,0,,0.0,-0.18,0.21,0.84,0.46,0.03,0.06,-0.1,-4.57,2.04,8.32,0.0,0.0,0.0,-4.87,1.78,8.32
1738246878.2328117,4903,0,0,,0.0,-0.18,0.21,0.84,0.46,0.02,0.08,-0.12,-5.27,1.5,8.18,0.0,0.0,0.0,-4.89,1.77,8.3
1738246878.2499664,4904,0,0,,0.0,-0.18,0.21,0.84,0.46,0.02,0.16,-0.16,-4.45,1.93,8.43,0.0,0.0,0.0,-4.92,1.76,8.29
1738246878.2648296,4905,0,0,,0.0,-0.19,0.21,0.84,0.46,0.03,0.27,-0.17,-5.3,1.6,8.31,0.0,0.0,0.0,-4.95,1.75,8.27
1738246878.2835526,4906,0,0,,0.0,-0.19,0.21,0.84,0.47,0.04,0.32,-0.18,-5.76,1.12,8.15,0.0,0.0,0.0,-5.01,1.74,8.24
1738246878.2997646,4907,0,0,,0.0,-0.19,0.21,0.84,0.47,0.06,0.47,-0.17,-4.03,1.3,8.82,0.0,0.0,0.0,-5.1,1.73,8.18
1738246878.314517,4908,0,0,,0.0,-0.2,0.21,0.84,0.47,0.08,0.67,-0.16,-4.82,1.6,8.58,0.0,0.0,0.0,-5.16,1.73,8.15
1738246878.3328335,4909,0,0,,0.0,-0.2,0.22,0.83,0.47,0.09,0.76,-0.17,-4.1,1.87,7.49,0.0,0.0,0.0,-5.29,1.73,8.06
1738246878.3499146,4910,0,0,,0.0,-0.21,0.22,0.83,0.47,0.1,1.04,-0.21,-3.81,1.58,8.81,0.0,0.0,0.0,-5.47,1.72,7.94
1738246878.3649893,4911,0,0,,0.0,-0.22,0.23,0.83,0.46,0.1,1.21,-0.19,-5.72,2.29,9.05,0.0,0.0,0.0,-5.57,1.72,7.88
1738246878.383017,4912,0,0,,0.0,-0.23,0.23,0.82,0.46,0.08,1.41,-0.27,-7.33,2.04,8.77,0.0,0.0,0.0,-5.81,1.69,7.71
1738246878.3999033,4913,0,0,,0.0,-0.24,0.24,0.82,0.46,-0.01,1.77,-0.36,-5.68,2.01,7.78,0.0,0.0,0.0,-6.09,1.65,7.49
1738246878.4148283,4914,0,0,,0.0,-0.25,0.24,0.81,0.46,-0.1,2.1,-0.4,-6.7,1.89,8.37,0.0,0.0,0.0,-6.25,1.62,7.37
1738246878.43262,4915,0,0,,0.0,-0.27,0.25,0.81,0.46,-0.15,2.21,-0.42,-5.94,1.2,6.89,0.0,0.0,0.0,-6.59,1.54,7.09
1738246878.4500067,4916,0,0,,0.0,-0.29,0.26,0.8,0.46,-0.18,2.5,-0.48,-5.77,1.38,7.75,0.0,0.0,0.0,-6.95,1.45,6.76
1738246878.4648108,4917,0,0,,0.0,-0.31,0.27,0.79,0.45,-0.11,2.75,-0.51,-6.11,0.91,7.27,0.0,0.0,0.0,-7.13,1.41,6.57
1738246878.483332,4918,0,0,,0.0,-0.33,0.28,0.78,0.45,-0.02,2.91,-0.52,-6.33,1.96,6.88,0.0,0.0,0.0,-7.51,1.33,6.15
1738246878.4999766,4919,0,0,,0.0,-0.36,0.29,0.77,0.45,0.03,3.28,-0.59,-6.07,1.83,6.6,0.0,0.0,0.0,-7.92,1.23,5.64
1738246878.515158,4920,0,0,,0.0,-0.37,0.3,0.76,0.44,-0.15,3.87,-0.78,-7.6,2.37,6.72,0.0,0.0,0.0,-8.14,1.17,5.34
1738246878.5335314,4921,0,0,,0.0,-0.41,0.31,0.74,0.44,-0.21,4.39,-0.88,-11.28,1.47,9.99,0.0,0.0,0.0,-8.62,1.02,4.55
1738246878.5501854,4922,0,0,,0.0,-0.45,0.34,0.7,0.43,0.74,5.91,-0.93,-11.22,1.5,12.4,0.0,0.0,0.0,-9.11,0.9,3.49
1738246878.5649817,4923,0,0,,0.0,-0.48,0.35,0.69,0.42,0.31,6.54,-1.49,-15.15,4.96,13.7,0.0,0.0,0.0,-9.33,0.77,2.91
1738246878.5833242,4924,0,0,,0.0,-0.53,0.37,0.65,0.41,0.15,6.6,-1.87,-15.64,3.94,15.76,0.0,0.0,0.0,-9.64,0.42,1.7
1738246878.6001673,4925,0,0,,0.0,-0.57,0.38,0.61,0.4,-0.13,5.97,-2.04,-17.35,0.4,17.09,0.0,0.0,0.0,-9.77,0.06,0.77
1738246878.6155078,4926,0,0,,0.0,-0.57,0.37,0.61,0.4,-0.67,1.68,-1.44,-14.68,8.13,21.42,0.0,0.0,0.0,-9.78,-0.07,0.61
1738246878.6332948,4927,0,0,,0.0,-0.58,0.36,0.61,0.4,-0.99,0.36,-1.18,-6.24,3.23,9.64,0.0,0.0,0.0,-9.78,-0.32,0.53
1738246878.6505232,4928,0,0,,0.0,-0.59,0.35,0.6,0.4,-0.87,0.14,-1.2,-4.82,2.8,9.8,0.0,0.0,0.0,-9.77,-0.54,0.53
1738246878.665207,4929,0,0,,0.0,-0.59,0.35,0.6,0.41,-0.53,-0.53,-0.96,-4.21,3.44,9.12,0.0,0.0,0.0,-9.76,-0.63,0.58
1738246878.6832583,4930,0,0,,0.0,-0.59,0.33,0.61,0.41,-0.52,-0.94,-0.89,-2.02,1.56,7.42,0.0,0.0,0.0,-9.74,-0.8,0.79
1738246878.700285,4931,0,0,,0.0,-0.58,0.32,0.62,0.42,-0.23,-1.77,-0.71,-1.65,1.44,6.92,0.0,0.0,0.0,-9.69,-0.92,1.15
1738246878.715229,4932,0,0,,0.0,-0.57,0.31,0.62,0.43,0.0,-2.44,-0.45,-1.04,0.83,5.85,0.0,0.0,0.0,-9.65,-0.97,1.38
1738246878.7333403,4933,0,0,,0.0,-0.56,0.3,0.64,0.44,0.11,-2.73,-0.31,-1.91,0.24,5.76,0.0,0.0,0.0,-9.56,-1.01,1.92
1738246878.7506528,4934,0,0,,0.0,-0.53,0.29,0.65,0.45,0.24,-3.33,-0.19,-2.51,0.05,6.27,0.0,0.0,0.0,-9.4,-1.03,2.57
1738246878.7653675,4935,0,0,,0.0,-0.52,0.28,0.66,0.46,0.4,-3.96,-0.21,-3.34,-0.07,5.3,0.0,0.0,0.0,-9.29,-1.04,2.93
1738246878.7841733,4936,0,0,,0.0,-0.49,0.26,0.68,0.47,0.51,-4.15,-0.14,-4.26,1.27,5.11,0.0,0.0,0.0,-9.02,-1.02,3.69
1738246878.8006723,4937,0,0,,0.0,-0.46,0.25,0.7,0.48,0.65,-4.4,0.3,-5.5,1.28,5.17,0.0,0.0,0.0,-8.68,-0.89,4.46
1738246878.8156092,4938,0,0,,0.0,-0.44,0.24,0.71,0.49,0.79,-4.49,0.73,-7.31,0.24,5.77,0.0,0.0,0.0,-8.48,-0.79,4.84
1738246878.8336384,4939,0,0,,0.0,-0.4,0.23,0.73,0.49,0.78,-4.51,0.86,-9.66,1.26,5.84,0.0,0.0,0.0,-8.04,-0.57,5.58
1738246878.8508737,4940,0,0,,0.0,-0.36,0.22,0.76,0.5,0.66,-4.43,1.25,-10.52,1.43,5.88,0.0,0.0,0.0,-7.55,-0.29,6.24
1738246878.8660314,4941,0,0,,0.0,-0.35,0.21,0.77,0.5,0.64,-4.25,1.71,-12.06,0.61,6.84,0.0,0.0,0.0,-7.29,-0.12,6.55
1738246878.8845053,4942,0,0,,0.0,-0.31,0.21,0.79,0.49,0.65,-4.25,1.83,-13.79,-0.92,7.96,0.0,0.0,0.0,-6.72,0.2,7.13
1738246878.901042,4943,0,0,,0.0,-0.27,0.19,0.81,0.49,0.61,-4.38,1.82,-14.01,-1.21,8.4,0.0,0.0,0.0,-6.07,0.51,7.67
1738246878.9166865,4944,0,0,,0.0,-0.25,0.19,0.82,0.49,0.53,-4.53,1.61,-13.33,-2.09,7.61,0.0,0.0,0.0,-5.72,0.64,7.93
1738246878.933789,4945,0,0,,0.0,-0.21,0.17,0.83,0.48,0.58,-4.45,1.52,-14.04,-1.49,8.29,0.0,0.0,0.0,-5.01,0.89,8.37
1738246878.95137,4946,0,0,,0.0,-0.17,0.16,0.84,0.48,0.6,-4.08,1.36,-14.09,-1.31,8.05,0.0,0.0,0.0,-4.33,1.1,8.72
1738246878.9662366,4947,0,0,,0.0,-0.15,0.16,0.85,0.48,0.42,-3.55,1.17,-14.92,1.03,7.59,0.0,0.0,0.0,-4.02,1.19,8.86
1738246878.9840384,4948,0,0,,0.0,-0.12,0.15,0.86,0.48,0.25,-3.33,1.14,-14.33,0.05,5.81,0.0,0.0,0.0,-3.44,1.3,9.08
1738246879.0013285,4949,0,0,,0.0,-0.1,0.14,0.87,0.47,0.16,-2.76,1.11,-15.16,-1.76,6.47,0.0,0.0,0.0,-2.93,1.4,9.24
1738246879.016785,4950,0,0,,0.0,-0.09,0.13,0.87,0.47,0.2,-2.41,0.88,-13.85,-3.31,4.96,0.0,0.0,0.0,-2.7,1.44,9.31
1738246879.0341809,4951,0,0,,0.0,-0.07,0.13,0.87,0.47,0.2,-2.12,0.63,-12.79,-4.03,3.2,0.0,0.0,0.0,-2.34,1.51,9.4
1738246879.0512798,4952,0,0,,0.0,-0.06,0.12,0.87,0.47,0.18,-1.44,0.1,-12.47,-3.59,2.75,0.0,0.0,0.0,-2.11,1.53,9.45
1738246879.0672793,4953,0,0,,0.0,-0.06,0.12,0.87,0.47,0.05,-0.73,-0.25,-11.18,-2.14,0.51,0.0,0.0,0.0,-2.04,1.53,9.46
1738246879.0843487,4954,0,0,,0.0,-0.06,0.12,0.87,0.47,-0.02,-0.29,-0.38,-10.32,-0.74,-0.12,0.0,0.0,0.0,-2.05,1.5,9.47
1738246879.1017675,4955,0,0,,0.0,-0.07,0.12,0.87,0.48,-0.37,0.7,-0.6,-10.55,-0.77,0.57,0.0,0.0,0.0,-2.23,1.4,9.44
1738246879.117115,4956,0,0,,0.0,-0.07,0.12,0.87,0.48,-0.45,1.16,-0.41,-10.2,-0.16,7.98,0.0,0.0,0.0,-2.34,1.35,9.42
1738246879.1342607,4957,0,0,,0.0,-0.08,0.12,0.87,0.48,-0.23,1.01,-0.21,3.83,1.22,12.38,0.0,0.0,0.0,-2.52,1.32,9.38
1738246879.1519206,4958,0,0,,0.0,-0.1,0.13,0.86,0.48,-0.08,1.48,-0.6,6.29,4.78,22.39,0.0,0.0,0.0,-2.85,1.25,9.29
1738246879.1674776,4959,0,0,,0.0,-0.11,0.13,0.86,0.48,-0.33,2.24,-0.13,-6.76,0.42,4.67,0.0,0.0,0.0,-3.06,1.21,9.23
1738246879.1846,4960,0,0,,0.0,-0.12,0.14,0.86,0.48,-0.13,2.01,-0.07,-5.46,-2.25,12.0,0.0,0.0,0.0,-3.36,1.23,9.12
1738246879.2019105,4961,0,0,,0.0,-0.13,0.15,0.86,0.48,0.59,1.1,-0.04,-5.06,-0.81,11.66,0.0,0.0,0.0,-3.54,1.35,9.04
1738246879.2173839,4962,0,0,,0.0,-0.13,0.16,0.86,0.48,0.83,0.8,0.1,-4.11,2.56,9.74,0.0,0.0,0.0,-3.61,1.42,9.0
1738246879.2342534,4963,0,0,,0.0,-0.13,0.17,0.85,0.47,0.62,0.76,0.21,-4.31,2.06,9.21,0.0,0.0,0.0,-3.72,1.55,8.93
1738246879.2516882,4964,0,0,,0.0,-0.13,0.17,0.85,0.47,0.67,0.58,0.28,-3.71,2.16,8.56,0.0,0.0,0.0,-3.81,1.68,8.87
1738246879.2675653,4965,0,0,,0.0,-0.13,0.18,0.85,0.47,0.54,0.5,0.19,-4.15,2.67,9.24,0.0,0.0,0.0,-3.85,1.74,8.84
1738246879.2845283,4966,0,0,,0.0,-0.13,0.18,0.85,0.47,0.35,0.41,0.16,-3.7,3.27,9.61,0.0,0.0,0.0,-3.91,1.8,8.8
1738246879.3018372,4967,0,0,,0.0,-0.14,0.19,0.85,0.47,0.2,0.38,0.13,-4.36,2.06,9.17,0.0,0.0,0.0,-3.94,1.82,8.78
1738246879.3177023,4968,0,0,,0.0,-0.14,0.19,0.85,0.47,0.22,0.35,0.07,-3.65,1.9,8.26,0.0,0.0,0.0,-4.0,1.87,8.75
1738246879.3345845,4969,0,0,,0.0,-0.14,0.19,0.85,0.47,0.2,0.38,0.04,-3.34,2.22,7.82,0.0,0.0,0.0,-4.07,1.89,8.71
1738246879.3524835,4970,0,0,,0.0,-0.15,0.19,0.85,0.47,0.02,0.56,-0.07,-3.79,2.61,7.79,0.0,0.0,0.0,-4.12,1.89,8.69
1738246879.367339,4971,0,0,,0.0,-0.15,0.19,0.85,0.47,-0.39,0.68,-0.32,-4.29,3.62,7.95,0.0,0.0,0.0,-4.24,1.83,8.64
1738246879.3848605,4972,0,0,,0.0,-0.16,0.19,0.85,0.47,-0.55,0.71,-0.4,-5.21,1.79,9.5,0.0,0.0,0.0,-4.37,1.69,8.61
1738246879.4020398,4973,0,0,,0.0,-0.17,0.19,0.85,0.47,-0.6,0.58,-0.42,-5.53,1.33,9.08,0.0,0.0,0.0,-4.43,1.62,8.59
1738246879.418238,4974,0,0,,0.0,-0.17,0.19,0.85,0.47,-0.42,0.34,-0.29,-5.3,0.33,9.51,0.0,0.0,0.0,-4.51,1.51,8.57
1738246879.4346306,4975,0,0,,0.0,-0.17,0.18,0.85,0.47,-0.28,0.25,-0.19,-5.1,0.45,9.12,0.0,0.0,0.0,-4.55,1.46,8.56
1738246879.4522204,4976,0,0,,0.0,-0.17,0.18,0.84,0.47,-0.07,0.15,-0.03,-5.51,0.36,9.09,0.0,0.0,0.0,-4.56,1.46,8.55
1738246879.468111,4977,0,0,,0.0,-0.17,0.19,0.84,0.47,0.09,0.05,0.08,-4.46,1.4,8.98,0.0,0.0,0.0,-4.57,1.47,8.54
1738246879.4849815,4978,0,0,,0.0,-0.17,0.19,0.85,0.47,0.12,0.04,0.1,-4.9,1.17,8.44,0.0,0.0,0.0,-4.57,1.5,8.54
1738246879.5021465,4979,0,0,,0.0,-0.17,0.19,0.85,0.47,0.15,0.02,0.1,-4.9,1.41,8.18,0.0,0.0,0.0,-4.57,1.52,8.53
1738246879.5183554,4980,0,0,,0.0,-0.17,0.19,0.85,0.47,0.14,-0.01,0.08,-3.47,1.91,8.74,0.0,0.0,0.0,-4.57,1.55,8.53
1738246879.535149,4981,0,0,,0.0,-0.17,0.19,0.85,0.47,0.12,0.03,0.07,-4.77,1.39,8.27,0.0,0.0,0.0,-4.57,1.58,8.52
1738246879.5523405,4982,0,0,,0.0,-0.17,0.19,0.85,0.47,0.11,0.05,0.06,-4.87,1.66,8.07,0.0,0.0,0.0,-4.57,1.59,8.52
1738246879.5684617,4983,0,0,,0.0,-0.17,0.19,0.85,0.47,0.13,0.02,0.05,-3.9,1.82,8.74,0.0,0.0,0.0,-4.58,1.61,8.51
1738246879.5855174,4984,0,0,,0.0,-0.17,0.19,0.85,0.47,0.14,0.04,0.06,-4.32,1.4,8.39,0.0,0.0,0.0,-4.59,1.64,8.5
1738246879.602472,4985,0,0,,0.0,-0.17,0.2,0.85,0.47,0.17,0.14,0.06,-4.95,1.35,8.08,0.0,0.0,0.0,-4.6,1.66,8.49
1738246879.619479,4986,0,0,,0.0,-0.17,0.2,0.84,0.47,0.2,0.1,0.07,-4.47,1.83,8.64,0.0,0.0,0.0,-4.61,1.7,8.48
1738246879.635091,4987,0,0,,0.0,-0.17,0.2,0.84,0.47,0.19,0.1,0.06,-4.89,1.67,8.45,0.0,0.0,0.0,-4.63,1.73,8.46
1738246879.6524107,4988,0,0,,0.0,-0.17,0.2,0.84,0.47,0.12,0.11,0.03,-5.06,1.78,8.4,0.0,0.0,0.0,-4.64,1.74,8.45
1738246879.6673603,4989,0,0,,0.0,-0.17,0.2,0.84,0.47,0.07,0.09,0.02,-4.71,1.94,8.65,0.0,0.0,0.0,-4.65,1.76,8.44
1738246879.6845975,4990,0,0,,0.0,-0.17,0.2,0.84,0.47,0.05,0.08,0.02,-4.3,1.9,8.63,0.0,0.0,0.0,-4.67,1.77,8.43
1738246879.7022753,4991,0,0,,0.0,-0.17,0.2,0.84,0.47,0.03,0.07,0.01,-5.36,1.52,8.48,0.0,0.0,0.0,-4.67,1.77,8.43
1738246879.7169588,4992,0,0,,0.0,-0.17,0.2,0.84,0.47,0.04,0.05,0.02,-4.54,1.64,8.57,0.0,0.0,0.0,-4.68,1.78,8.42
1738246879.734503,4993,0,0,,0.0,-0.17,0.2,0.84,0.47,0.04,0.06,0.02,-5.13,1.46,8.42,0.0,0.0,0.0,-4.69,1.78,8.42
1738246879.7529924,4994,0,0,,0.0,-0.17,0.2,0.84,0.47,0.04,0.07,0.01,-5.1,1.55,8.36,0.0,0.0,0.0,-4.69,1.79,8.41
1738246879.768008,4995,0,0,,0.0,-0.17,0.2,0.84,0.47,0.04,0.06,0.01,-4.59,1.87,8.38,0.0,0.0,0.0,-4.7,1.79,8.41
1738246879.7856333,4996,0,0,,0.0,-0.17,0.2,0.84,0.47,0.04,0.07,0.0,-4.79,1.66,8.16,0.0,0.0,0.0,-4.71,1.8,8.4
1738246879.8032205,4997,0,0,,0.0,-0.17,0.21,0.84,0.47,0.05,0.07,0.0,-5.48,1.38,8.28,0.0,0.0,0.0,-4.72,1.81,8.4
1738246879.8195262,4998,0,0,,0.0,-0.17,0.21,0.84,0.47,0.05,0.05,0.0,-4.38,1.99,8.5,0.0,0.0,0.0,-4.73,1.81,8.39
1738246879.8354647,4999,0,0,,0.0,-0.17,0.21,0.84,0.47,0.04,0.06,-0.0,-4.91,1.69,8.19,0.0,0.0,0.0,-4.74,1.82,8.38
1738246879.853393,5000,0,0,,0.0,-0.17,0.21,0.84,0.47,0.04,0.05,-0.01,-4.29,2.13,8.45,0.0,0.0,0.0,-4.74,1.82,8.38
1738246879.869059,5001,0,0,,0.0,-0.17,0.21,0.84,0.47,0.04,0.04,-0.02,-4.55,2.11,8.39,0.0,0.0,0.0,-4.75,1.83,8.37
1738246879.8854752,5002,0,0,,0.0,-0.17,0.21,0.84,0.47,0.03,0.04,-0.03,-5.59,1.67,8.01,0.0,0.0,0.0,-4.76,1.83,8.37
1738246879.9040768,5003,0,0,,0.0,-0.17,0.21,0.84,0.47,0.04,0.05,-0.04,-4.39,2.07,8.53,0.0,0.0,0.0,-4.76,1.83,8.37
1738246879.9185824,5004,0,0,,0.0,-0.17,0.21,0.84,0.47,0.03,0.04,-0.05,-4.55,1.74,8.55,0.0,0.0,0.0,-4.77,1.83,8.36
1738246879.9351661,5005,0,0,,0.0,-0.17,0.21,0.84,0.47,0.03,0.06,-0.05,-4.82,1.81,8.25,0.0,0.0,0.0,-4.79,1.83,8.35
1738246879.953515,5006,0,0,,0.0,-0.18,0.21,0.84,0.47,0.03,0.09,-0.06,-4.84,1.84,8.41,0.0,0.0,0.0,-4.79,1.83,8.35
1738246879.970421,5007,0,0,,0.0,-0.18,0.21,0.84,0.47,0.04,0.13,-0.07,-4.3,1.94,8.53,0.0,0.0,0.0,-4.81,1.83,8.34
1738246879.9857616,5008,0,0,,0.0,-0.18,0.21,0.84,0.47,0.03,0.18,-0.08,-5.15,1.7,8.17,0.0,0.0,0.0,-4.85,1.83,8.32
1738246880.003553,5009,0,0,,0.0,-0.18,0.21,0.84,0.47,0.06,0.27,-0.12,-4.24,1.7,8.59,0.0,0.0,0.0,-4.88,1.83,8.3
1738246880.020454,5010,0,0,,0.0,-0.18,0.21,0.84,0.47,0.07,0.41,-0.13,-4.14,1.78,8.63,0.0,0.0,0.0,-4.94,1.83,8.26
1738246880.0357356,5011,0,0,,0.0,-0.19,0.22,0.84,0.47,0.08,0.49,-0.14,-5.15,1.41,8.38,0.0,0.0,0.0,-5.03,1.83,8.21
1738246880.053567,5012,0,0,,0.0,-0.19,0.22,0.83,0.47,0.11,0.69,-0.15,-3.97,1.79,8.48,0.0,0.0,0.0,-5.09,1.83,8.17
1738246880.0708246,5013,0,0,,0.0,-0.2,0.22,0.83,0.47,0.12,1.02,-0.18,-3.92,1.83,8.1,0.0,0.0,0.0,-5.24,1.83,8.08
1738246880.0860095,5014,0,0,,0.0,-0.21,0.23,0.83,0.47,0.13,1.15,-0.18,-4.72,1.71,7.44,0.0,0.0,0.0,-5.43,1.83,7.95
1738246880.1040833,5015,0,0,,0.0,-0.22,0.24,0.82,0.47,0.14,1.42,-0.25,-3.31,2.19,8.01,0.0,0.0,0.0,-5.54,1.83,7.87
1738246880.1208806,5016,0,0,,0.0,-0.22,0.24,0.82,0.47,0.08,1.75,-0.32,-5.0,1.63,7.46,0.0,0.0,0.0,-5.81,1.81,7.68
1738246880.1363416,5017,0,0,,0.0,-0.24,0.25,0.81,0.46,0.04,1.94,-0.36,-6.79,1.85,8.16,0.0,0.0,0.0,-6.12,1.77,7.44
1738246880.154391,5018,0,0,,0.0,-0.26,0.26,0.81,0.46,-0.04,2.23,-0.41,-4.46,1.66,7.76,0.0,0.0,0.0,-6.29,1.74,7.31
1738246880.1718123,5019,0,0,,0.0,-0.27,0.26,0.8,0.46,-0.09,2.54,-0.48,-6.16,1.52,7.74,0.0,0.0,0.0,-6.64,1.67,7.01
1738246880.1871438,5020,0,0,,0.0,-0.29,0.27,0.79,0.46,-0.04,2.82,-0.56,-6.76,1.43,7.08,0.0,0.0,0.0,-7.03,1.59,6.64
1738246880.2044644,5021,0,0,,0.0,-0.32,0.28,0.78,0.45,0.04,2.94,-0.59,-5.92,2.03,7.41,0.0,0.0,0.0,-7.22,1.55,6.44
1738246880.2216425,5022,0,0,,0.0,-0.33,0.29,0.78,0.45,0.0,3.26,-0.7,-6.0,2.4,6.66,0.0,0.0,0.0,-7.62,1.46,5.98
1738246880.2383626,5023,0,0,,0.0,-0.36,0.3,0.76,0.45,-0.21,3.79,-0.91,-8.06,2.13,7.16,0.0,0.0,0.0,-8.05,1.31,5.43
1738246880.2549825,5024,0,0,,0.0,-0.4,0.32,0.74,0.44,-0.33,4.15,-1.0,-8.0,2.09,8.57,0.0,0.0,0.0,-8.52,1.12,4.72
1738246880.2725925,5025,0,0,,0.0,-0.42,0.33,0.73,0.44,0.05,5.42,-1.05,-9.18,1.6,10.36,0.0,0.0,0.0,-8.76,1.04,4.26
1738246880.288895,5026,0,0,,0.0,-0.47,0.34,0.7,0.43,-0.07,6.18,-1.46,-11.7,4.21,10.69,0.0,0.0,0.0,-9.22,0.81,3.22
1738246880.3053973,5027,0,0,,0.0,-0.52,0.36,0.66,0.41,-0.2,6.41,-1.77,-12.06,4.42,11.82,0.0,0.0,0.0,-9.58,0.46,2.04
1738246880.3235483,5028,0,0,,0.0,-0.54,0.37,0.64,0.41,-0.29,6.67,-1.86,-15.42,2.2,16.04,0.0,0.0,0.0,-9.69,0.28,1.42
1738246880.3421822,5029,0,0,,0.0,-0.57,0.38,0.61,0.4,0.39,3.33,-1.08,-16.31,9.94,15.84,0.0,0.0,0.0,-9.79,0.04,0.56
1738246880.357455,5030,0,0,,0.0,-0.58,0.38,0.6,0.4,-0.59,0.39,-0.79,-3.9,6.87,10.0,0.0,0.0,0.0,-9.79,-0.12,0.38
1738246880.3741689,5031,0,0,,0.0,-0.59,0.37,0.6,0.4,-1.04,0.42,-0.69,-5.63,2.94,7.84,0.0,0.0,0.0,-9.79,-0.19,0.34
1738246880.3929346,5032,0,0,,0.0,-0.59,0.37,0.6,0.4,-0.36,-0.15,-0.44,-5.63,3.38,10.09,0.0,0.0,0.0,-9.79,-0.29,0.32
1738246880.407478,5033,0,0,,0.0,-0.59,0.36,0.6,0.4,-0.47,-1.16,-0.43,-4.21,1.07,8.88,0.0,0.0,0.0,-9.78,-0.38,0.49
1738246880.4243655,5034,0,0,,0.0,-0.58,0.35,0.61,0.4,-0.37,-1.61,-0.48,-3.67,-0.12,7.54,0.0,0.0,0.0,-9.77,-0.42,0.64
1738246880.4442093,5035,0,0,,0.0,-0.57,0.34,0.62,0.41,-0.09,-2.34,-0.54,-3.73,0.79,6.67,0.0,0.0,0.0,-9.73,-0.52,1.05
1738246880.458458,5036,0,0,,0.0,-0.56,0.33,0.63,0.43,-0.04,-2.95,-0.42,-4.2,1.0,6.05,0.0,0.0,0.0,-9.65,-0.61,1.58
1738246880.4752684,5037,0,0,,0.0,-0.55,0.32,0.64,0.43,0.02,-3.25,-0.29,-4.49,1.28,5.72,0.0,0.0,0.0,-9.6,-0.64,1.88
1738246880.4946308,5038,0,0,,0.0,-0.53,0.3,0.66,0.44,0.04,-3.77,-0.1,-4.99,0.42,5.02,0.0,0.0,0.0,-9.44,-0.67,2.56
1738246880.509407,5039,0,0,,0.0,-0.5,0.29,0.68,0.46,0.14,-4.1,0.05,-5.84,0.66,4.35,0.0,0.0,0.0,-9.21,-0.66,3.29
1738246880.5250719,5040,0,0,,0.0,-0.49,0.28,0.69,0.46,0.2,-4.2,0.2,-6.41,0.92,4.58,0.0,0.0,0.0,-9.07,-0.63,3.66
1738246880.5452855,5041,0,0,,0.0,-0.45,0.26,0.71,0.47,0.28,-4.38,0.5,-7.29,-1.15,4.5,0.0,0.0,0.0,-8.73,-0.54,4.41
1738246880.5593913,5042,0,0,,0.0,-0.42,0.25,0.73,0.48,0.54,-4.44,0.54,-9.09,-0.57,5.34,0.0,0.0,0.0,-8.33,-0.4,5.15
1738246880.5753696,5043,0,0,,0.0,-0.38,0.23,0.75,0.49,0.53,-4.47,0.53,-9.75,0.32,5.5,0.0,0.0,0.0,-8.1,-0.33,5.51
1738246880.5946429,5044,0,0,,0.0,-0.37,0.23,0.76,0.49,0.46,-4.39,0.86,-10.37,2.42,4.65,0.0,0.0,0.0,-7.6,-0.17,6.18
1738246880.6090162,5045,0,0,,0.0,-0.33,0.21,0.78,0.49,0.37,-4.11,1.38,-11.0,1.37,4.53,0.0,0.0,0.0,-7.08,0.05,6.78
1738246880.625538,5046,0,0,,0.0,-0.31,0.21,0.79,0.49,0.46,-3.9,1.55,-11.44,-0.09,5.14,0.0,0.0,0.0,-6.81,0.18,7.04
1738246880.6447592,5047,0,0,,0.0,-0.28,0.2,0.8,0.49,0.62,-3.61,1.62,-13.1,-0.71,7.66,0.0,0.0,0.0,-6.29,0.47,7.5
1738246880.659927,5048,0,0,,0.0,-0.24,0.19,0.82,0.48,0.57,-3.77,1.52,-12.71,-1.97,8.33,0.0,0.0,0.0,-5.72,0.74,7.92
1738246880.6753788,5049,0,0,,0.0,-0.23,0.19,0.83,0.48,0.51,-3.82,1.38,-12.53,-2.5,8.31,0.0,0.0,0.0,-5.41,0.86,8.13
1738246880.6941335,5050,0,0,,0.0,-0.19,0.17,0.84,0.48,0.45,-3.82,1.05,-12.68,-2.2,9.13,0.0,0.0,0.0,-4.77,1.04,8.49
1738246880.7092535,5051,0,0,,0.0,-0.16,0.16,0.85,0.48,0.39,-3.75,0.72,-12.15,-1.11,8.11,0.0,0.0,0.0,-4.12,1.18,8.81
1738246880.7252307,5052,0,0,,0.0,-0.14,0.15,0.85,0.48,0.4,-3.61,0.62,-12.07,-1.2,7.3,0.0,0.0,0.0,-3.8,1.24,8.95
1738246880.7449598,5053,0,0,,0.0,-0.11,0.14,0.86,0.48,0.47,-3.1,0.44,-11.59,-0.86,5.55,0.0,0.0,0.0,-3.22,1.35,9.16
1738246880.759567,5054,0,0,,0.0,-0.09,0.14,0.86,0.48,0.4,-2.38,0.29,-10.85,-0.37,4.22,0.0,0.0,0.0,-2.75,1.45,9.29
1738246880.7757483,5055,0,0,,0.0,-0.08,0.13,0.86,0.48,0.31,-1.93,0.23,-9.28,-0.78,2.09,0.0,0.0,0.0,-2.57,1.48,9.34
1738246880.7942982,5056,0,0,,0.0,-0.07,0.13,0.86,0.48,0.18,-0.79,0.1,-9.14,-1.66,2.21,0.0,0.0,0.0,-2.37,1.52,9.39
1738246880.8089414,5057,0,0,,0.0,-0.07,0.13,0.86,0.48,0.26,-0.09,0.15,-11.68,-1.59,4.42,0.0,0.0,0.0,-2.33,1.57,9.39
1738246880.8255074,5058,0,0,,0.0,-0.06,0.13,0.86,0.48,0.17,0.01,0.09,-10.54,-2.12,2.77,0.0,0.0,0.0,-2.33,1.59,9.38
1738246880.844346,5059,0,0,,0.0,-0.07,0.13,0.86,0.48,-0.11,0.6,-0.15,-11.6,-1.89,3.03,0.0,0.0,0.0,-2.42,1.58,9.36
1738246880.8587132,5060,0,0,,0.0,-0.08,0.13,0.86,0.48,-0.29,1.07,-0.11,-12.11,-1.26,3.3,0.0,0.0,0.0,-2.6,1.53,9.33
1738246880.8753254,5061,0,0,,0.0,-0.08,0.14,0.86,0.48,-0.3,1.05,-0.12,-8.44,-1.61,6.01,0.0,0.0,0.0,-2.69,1.5,9.3
1738246880.8942704,5062,0,0,,0.0,-0.09,0.14,0.86,0.48,0.21,1.34,-0.47,4.14,4.33,19.46,0.0,0.0,0.0,-2.9,1.5,9.24
1738246880.9083939,5063,0,0,,0.0,-0.11,0.15,0.85,0.49,-0.13,1.98,-0.36,-6.99,0.64,7.94,0.0,0.0,0.0,-3.27,1.44,9.13
1738246880.9251819,5064,0,0,,0.0,-0.12,0.15,0.85,0.49,0.14,1.79,-0.13,-9.98,-0.38,8.32,0.0,0.0,0.0,-3.43,1.45,9.07
1738246880.9441495,5065,0,0,,0.0,-0.13,0.16,0.85,0.48,0.41,1.07,-0.12,-4.96,2.66,13.05,0.0,0.0,0.0,-3.64,1.51,8.97
1738246880.9584785,5066,0,0,,0.0,-0.13,0.17,0.85,0.48,0.51,0.81,0.13,-3.77,3.78,9.21,0.0,0.0,0.0,-3.79,1.59,8.9
1738246880.9751801,5067,0,0,,0.0,-0.13,0.17,0.85,0.48,0.33,0.88,0.13,-6.26,2.87,10.76,0.0,0.0,0.0,-3.86,1.62,8.86
1738246880.9929602,5068,0,0,,0.0,-0.14,0.18,0.85,0.48,0.14,0.61,0.11,-3.06,2.6,8.84,0.0,0.0,0.0,-3.97,1.66,8.8
1738246881.0080745,5069,0,0,,0.0,-0.14,0.18,0.85,0.48,0.03,0.65,0.09,-5.35,1.7,8.41,0.0,0.0,0.0,-4.07,1.67,8.75
1738246881.0248394,5070,0,0,,0.0,-0.15,0.18,0.85,0.48,-0.09,0.46,-0.06,-3.92,2.72,8.8,0.0,0.0,0.0,-4.11,1.66,8.74
1738246881.0439425,5071,0,0,,0.0,-0.15,0.18,0.85,0.48,-0.28,0.43,-0.13,-3.48,0.49,7.8,0.0,0.0,0.0,-4.19,1.61,8.71
1738246881.058783,5072,0,0,,0.0,-0.16,0.18,0.84,0.48,-0.28,0.48,-0.14,-4.22,0.4,7.75,0.0,0.0,0.0,-4.28,1.55,8.68
1738246881.075358,5073,0,0,,0.0,-0.16,0.18,0.84,0.48,-0.17,0.57,-0.17,-4.08,1.13,7.85,0.0,0.0,0.0,-4.33,1.53,8.66
1738246881.093107,5074,0,0,,0.0,-0.16,0.18,0.84,0.48,-0.23,0.62,-0.23,-4.56,2.2,8.69,0.0,0.0,0.0,-4.44,1.48,8.61
1738246881.1086426,5075,0,0,,0.0,-0.17,0.18,0.84,0.48,-0.28,0.64,-0.26,-5.86,1.24,9.06,0.0,0.0,0.0,-4.55,1.41,8.57
1738246881.1248317,5076,0,0,,0.0,-0.17,0.18,0.84,0.48,-0.24,0.53,-0.24,-5.82,1.47,9.75,0.0,0.0,0.0,-4.59,1.38,8.54
1738246881.1436133,5077,0,0,,0.0,-0.18,0.18,0.84,0.48,-0.15,0.34,-0.15,-5.26,0.86,9.27,0.0,0.0,0.0,-4.66,1.33,8.52
1738246881.159174,5078,0,0,,0.0,-0.18,0.18,0.84,0.48,-0.11,0.27,-0.09,-6.09,0.07,8.56,0.0,0.0,0.0,-4.7,1.32,8.49
1738246881.1756268,5079,0,0,,0.0,-0.18,0.18,0.84,0.48,0.07,0.16,0.02,-5.34,1.2,9.15,0.0,0.0,0.0,-4.72,1.32,8.49
1738246881.1928394,5080,0,0,,0.0,-0.18,0.19,0.84,0.48,0.11,0.05,0.08,-5.04,1.23,8.78,0.0,0.0,0.0,-4.73,1.35,8.48
1738246881.2085538,5081,0,0,,0.0,-0.18,0.19,0.84,0.48,0.12,0.02,0.09,-4.99,1.06,8.4,0.0,0.0,0.0,-4.72,1.38,8.47
1738246881.2253385,5082,0,0,,0.0,-0.18,0.19,0.84,0.48,0.17,-0.02,0.12,-4.28,1.52,8.67,0.0,0.0,0.0,-4.72,1.4,8.47
1738246881.2434745,5083,0,0,,0.0,-0.18,0.19,0.84,0.48,0.16,-0.01,0.11,-4.32,1.42,8.28,0.0,0.0,0.0,-4.72,1.44,8.47
1738246881.2587934,5084,0,0,,0.0,-0.18,0.19,0.84,0.48,0.15,0.01,0.09,-4.77,1.4,8.14,0.0,0.0,0.0,-4.72,1.47,8.46
1738246881.2755015,5085,0,0,,0.0,-0.18,0.19,0.84,0.48,0.15,0.0,0.06,-4.07,1.84,8.63,0.0,0.0,0.0,-4.72,1.48,8.46
1738246881.2922778,5086,0,0,,0.0,-0.18,0.19,0.84,0.48,0.13,0.05,0.03,-5.07,1.49,8.33,0.0,0.0,0.0,-4.72,1.51,8.45
1738246881.3083096,5087,0,0,,0.0,-0.18,0.19,0.84,0.48,0.1,0.03,0.01,-4.55,1.41,8.64,0.0,0.0,0.0,-4.72,1.53,8.45
1738246881.3244991,5088,0,0,,0.0,-0.18,0.19,0.84,0.48,0.11,-0.0,0.02,-4.2,1.58,8.69,0.0,0.0,0.0,-4.72,1.54,8.45
1738246881.342884,5089,0,0,,0.0,-0.18,0.2,0.84,0.48,0.11,0.05,0.03,-5.03,1.36,8.4,0.0,0.0,0.0,-4.73,1.56,8.44
1738246881.358683,5090,0,0,,0.0,-0.18,0.2,0.84,0.48,0.12,0.04,0.03,-4.9,1.75,8.55,0.0,0.0,0.0,-4.73,1.58,8.43
1738246881.375085,5091,0,0,,0.0,-0.18,0.2,0.84,0.48,0.12,0.01,0.03,-3.84,1.73,8.86,0.0,0.0,0.0,-4.73,1.59,8.43
1738246881.3923323,5092,0,0,,0.0,-0.18,0.2,0.84,0.48,0.1,0.03,0.03,-4.68,1.63,8.51,0.0,0.0,0.0,-4.74,1.61,8.42
1738246881.408314,5093,0,0,,0.0,-0.18,0.2,0.84,0.48,0.1,0.03,0.02,-5.27,1.45,8.27,0.0,0.0,0.0,-4.74,1.63,8.42
1738246881.4248867,5094,0,0,,0.0,-0.18,0.2,0.84,0.48,0.08,0.02,0.02,-4.26,1.53,8.73,0.0,0.0,0.0,-4.74,1.64,8.42
1738246881.4433458,5095,0,0,,0.0,-0.18,0.2,0.84,0.48,0.07,0.03,0.02,-5.02,1.43,8.27,0.0,0.0,0.0,-4.75,1.65,8.41
1738246881.4591143,5096,0,0,,0.0,-0.17,0.2,0.84,0.48,0.07,0.03,0.02,-4.67,1.72,8.48,0.0,0.0,0.0,-4.75,1.67,8.41
1738246881.4752898,5097,0,0,,0.0,-0.17,0.2,0.84,0.48,0.07,0.02,0.02,-4.14,2.04,8.68,0.0,0.0,0.0,-4.75,1.67,8.4
1738246881.4930007,5098,0,0,,0.0,-0.17,0.2,0.84,0.48,0.05,0.05,0.01,-5.15,1.59,8.25,0.0,0.0,0.0,-4.76,1.68,8.4
1738246881.5091872,5099,0,0,,0.0,-0.17,0.2,0.84,0.48,0.06,0.05,0.01,-4.18,1.91,8.68,0.0,0.0,0.0,-4.77,1.69,8.39
1738246881.525239,5100,0,0,,0.0,-0.17,0.2,0.84,0.48,0.06,0.04,0.01,-4.28,1.79,8.63,0.0,0.0,0.0,-4.76,1.7,8.39
1738246881.5437133,5101,0,0,,0.0,-0.17,0.2,0.84,0.48,0.05,0.05,-0.0,-5.12,1.54,8.25,0.0,0.0,0.0,-4.77,1.71,8.39
1738246881.55939,5102,0,0,,0.0,-0.17,0.2,0.84,0.48,0.06,0.05,-0.01,-4.45,1.83,8.6,0.0,0.0,0.0,-4.78,1.72,8.38
1738246881.5751114,5103,0,0,,0.0,-0.17,0.2,0.84,0.48,0.07,0.03,-0.0,-4.65,1.71,8.35,0.0,0.0,0.0,-4.78,1.72,8.38
1738246881.5932508,5104,0,0,,0.0,-0.17,0.21,0.84,0.48,0.11,0.03,-0.0,-4.72,1.61,8.3,0.0,0.0,0.0,-4.79,1.74,8.37
1738246881.6092386,5105,0,0,,0.0,-0.17,0.21,0.84,0.48,0.14,0.03,0.01,-5.29,1.42,8.21,0.0,0.0,0.0,-4.79,1.76,8.37
1738246881.625173,5106,0,0,,0.0,-0.17,0.21,0.84,0.48,0.16,0.03,0.01,-4.51,1.9,8.47,0.0,0.0,0.0,-4.79,1.78,8.36
1738246881.6433394,5107,0,0,,0.0,-0.17,0.21,0.84,0.48,0.14,0.06,-0.01,-5.06,1.64,8.19,0.0,0.0,0.0,-4.8,1.8,8.35
1738246881.6592796,5108,0,0,,0.0,-0.17,0.21,0.84,0.48,0.13,0.08,-0.03,-5.01,1.78,8.22,0.0,0.0,0.0,-4.82,1.82,8.34
1738246881.6759117,5109,0,0,,0.0,-0.17,0.21,0.83,0.48,0.11,0.14,-0.07,-4.03,1.65,8.59,0.0,0.0,0.0,-4.83,1.82,8.33
1738246881.693419,5110,0,0,,0.0,-0.18,0.21,0.83,0.48,0.1,0.27,-0.12,-4.34,1.89,8.36,0.0,0.0,0.0,-4.87,1.83,8.3
1738246881.709463,5111,0,0,,0.0,-0.18,0.22,0.83,0.48,0.1,0.35,-0.14,-4.33,1.89,8.5,0.0,0.0,0.0,-4.94,1.84,8.26
1738246881.725559,5112,0,0,,0.0,-0.18,0.22,0.83,0.48,0.12,0.5,-0.14,-4.36,1.89,8.43,0.0,0.0,0.0,-4.98,1.84,8.24
1738246881.743462,5113,0,0,,0.0,-0.19,0.22,0.83,0.48,0.12,0.59,-0.14,-5.26,1.41,8.17,0.0,0.0,0.0,-5.08,1.84,8.17
1738246881.7596858,5114,0,0,,0.0,-0.19,0.23,0.83,0.48,0.15,0.77,-0.15,-4.68,1.63,8.57,0.0,0.0,0.0,-5.22,1.85,8.08
1738246881.7754025,5115,0,0,,0.0,-0.2,0.23,0.83,0.48,0.17,0.96,-0.16,-4.75,1.9,8.19,0.0,0.0,0.0,-5.3,1.86,8.03
1738246881.7931175,5116,0,0,,0.0,-0.2,0.23,0.82,0.48,0.16,1.08,-0.19,-6.12,2.15,9.79,0.0,0.0,0.0,-5.48,1.86,7.91
1738246881.8097224,5117,0,0,,0.0,-0.21,0.24,0.82,0.48,0.12,1.32,-0.2,-7.38,2.87,9.15,0.0,0.0,0.0,-5.69,1.86,7.76
1738246881.8254926,5118,0,0,,0.0,-0.22,0.24,0.82,0.48,0.07,1.61,-0.32,-5.39,2.52,8.31,0.0,0.0,0.0,-5.82,1.84,7.67
1738246881.8440328,5119,0,0,,0.0,-0.24,0.25,0.81,0.47,-0.02,1.82,-0.42,-5.87,1.63,6.82,0.0,0.0,0.0,-6.11,1.79,7.45
1738246881.8603847,5120,0,0,,0.0,-0.26,0.26,0.8,0.47,-0.11,2.06,-0.49,-6.36,1.92,8.03,0.0,0.0,0.0,-6.43,1.71,7.2
1738246881.87599,5121,0,0,,0.0,-0.27,0.26,0.8,0.47,-0.19,2.29,-0.53,-4.83,1.71,7.25,0.0,0.0,0.0,-6.59,1.66,7.06
1738246881.893499,5122,0,0,,0.0,-0.29,0.27,0.79,0.47,-0.22,2.48,-0.56,-7.55,1.17,6.52,0.0,0.0,0.0,-6.95,1.55,6.73
1738246881.909927,5123,0,0,,0.0,-0.31,0.28,0.78,0.47,-0.25,2.78,-0.65,-6.23,1.33,6.94,0.0,0.0,0.0,-7.33,1.43,6.34
1738246881.9255817,5124,0,0,,0.0,-0.32,0.29,0.77,0.46,-0.16,3.01,-0.72,-6.58,1.82,6.97,0.0,0.0,0.0,-7.52,1.37,6.13
1738246881.9444716,5125,0,0,,0.0,-0.35,0.3,0.76,0.46,-0.19,3.16,-0.8,-7.29,1.82,6.91,0.0,0.0,0.0,-7.91,1.22,5.65
1738246881.9603224,5126,0,0,,0.0,-0.39,0.31,0.74,0.46,-0.35,3.68,-0.96,-8.68,1.4,8.29,0.0,0.0,0.0,-8.34,1.02,5.04
1738246881.97634,5127,0,0,,0.0,-0.4,0.31,0.73,0.45,-0.32,4.7,-1.22,-10.71,2.26,9.68,0.0,0.0,0.0,-8.57,0.9,4.66
1738246881.9943016,5128,0,0,,0.0,-0.45,0.33,0.7,0.44,-0.23,5.13,-1.24,-10.34,2.78,9.42,0.0,0.0,0.0,-9.03,0.66,3.75
1738246882.0103455,5129,0,0,,0.0,-0.49,0.34,0.67,0.44,-0.28,5.84,-1.78,-12.76,5.49,11.86,0.0,0.0,0.0,-9.42,0.29,2.69
1738246882.026413,5130,0,0,,0.0,-0.52,0.35,0.65,0.43,-0.5,6.19,-2.18,-12.57,5.03,13.08,0.0,0.0,0.0,-9.57,0.08,2.12
1738246882.0447829,5131,0,0,,0.0,-0.56,0.36,0.61,0.42,-0.5,6.27,-2.11,-17.5,-0.7,16.49,0.0,0.0,0.0,-9.75,-0.29,1.0
1738246882.0604777,5132,0,0,,0.0,-0.58,0.37,0.59,0.42,0.08,3.57,-1.15,-12.35,10.52,17.31,0.0,0.0,0.0,-9.78,-0.46,0.5
1738246882.0762463,5133,0,0,,0.0,-0.59,0.37,0.59,0.41,-0.96,0.76,-0.3,-5.93,8.13,11.46,0.0,0.0,0.0,-9.78,-0.49,0.42
1738246882.0945253,5134,0,0,,0.0,-0.59,0.36,0.59,0.41,-1.42,0.68,-0.2,-6.92,-0.38,10.17,0.0,0.0,0.0,-9.78,-0.54,0.31
1738246882.110495,5135,0,0,,0.0,-0.6,0.36,0.59,0.41,-0.36,-0.06,-0.32,-6.36,2.06,9.24,0.0,0.0,0.0,-9.77,-0.62,0.36
1738246882.1266794,5136,0,0,,0.0,-0.6,0.35,0.6,0.41,-0.44,-0.93,-0.66,-4.78,0.86,7.57,0.0,0.0,0.0,-9.77,-0.69,0.44
1738246882.144939,5137,0,0,,0.0,-0.59,0.34,0.6,0.42,-0.41,-1.35,-0.73,-3.83,1.03,6.79,0.0,0.0,0.0,-9.74,-0.83,0.73
1738246882.1606987,5138,0,0,,0.0,-0.58,0.33,0.61,0.43,-0.11,-2.02,-0.59,-4.17,1.49,6.7,0.0,0.0,0.0,-9.69,-0.92,1.14
1738246882.1762683,5139,0,0,,0.0,-0.57,0.32,0.62,0.43,-0.08,-2.66,-0.25,-3.34,1.02,4.79,0.0,0.0,0.0,-9.66,-0.95,1.39
1738246882.1946275,5140,0,0,,0.0,-0.55,0.31,0.64,0.44,-0.06,-2.87,-0.1,-3.79,0.33,4.96,0.0,0.0,0.0,-9.56,-0.96,1.94
1738246882.2110164,5141,0,0,,0.0,-0.53,0.29,0.65,0.45,0.03,-3.3,0.09,-4.21,-0.53,5.27,0.0,0.0,0.0,-9.41,-0.93,2.57
1738246882.2263386,5142,0,0,,0.0,-0.52,0.29,0.66,0.46,0.17,-3.75,0.14,-5.36,0.06,5.73,0.0,0.0,0.0,-9.31,-0.92,2.91
1738246882.2447934,5143,0,0,,0.0,-0.49,0.27,0.68,0.47,0.19,-3.98,0.19,-5.35,-0.1,4.78,0.0,0.0,0.0,-9.06,-0.86,3.64
1738246882.2611885,5144,0,0,,0.0,-0.46,0.25,0.71,0.47,0.3,-4.21,0.39,-6.0,0.25,5.09,0.0,0.0,0.0,-8.74,-0.76,4.37
1738246882.2766976,5145,0,0,,0.0,-0.44,0.25,0.72,0.48,0.41,-4.39,0.54,-6.92,-1.18,5.65,0.0,0.0,0.0,-8.55,-0.7,4.74
1738246882.2952397,5146,0,0,,0.0,-0.41,0.23,0.74,0.49,0.53,-4.48,0.54,-8.49,0.92,5.58,0.0,0.0,0.0,-8.11,-0.55,5.48
1738246882.3111725,5147,0,0,,0.0,-0.37,0.22,0.76,0.49,0.58,-4.52,0.72,-8.62,1.75,5.16,0.0,0.0,0.0,-7.61,-0.36,6.16
1738246882.3266683,5148,0,0,,0.0,-0.35,0.21,0.77,0.49,0.56,-4.21,1.35,-10.23,2.22,5.38,0.0,0.0,0.0,-7.36,-0.22,6.47
1738246882.3450596,5149,0,0,,0.0,-0.32,0.2,0.79,0.49,0.53,-4.01,1.66,-11.47,0.57,6.52,0.0,0.0,0.0,-6.84,0.08,7.01
1738246882.3614962,5150,0,0,,0.0,-0.28,0.2,0.8,0.48,0.56,-3.74,1.99,-13.17,-0.81,8.61,0.0,0.0,0.0,-6.31,0.41,7.49
1738246882.376978,5151,0,0,,0.0,-0.26,0.19,0.81,0.48,0.53,-3.85,1.9,-14.03,-1.68,9.76,0.0,0.0,0.0,-6.02,0.57,7.71
1738246882.3947303,5152,0,0,,0.0,-0.23,0.18,0.83,0.48,0.45,-4.01,1.71,-13.17,-2.87,9.07,0.0,0.0,0.0,-5.37,0.81,8.16
1738246882.411468,5153,0,0,,0.0,-0.19,0.17,0.84,0.48,0.39,-4.16,1.25,-12.87,-3.22,8.51,0.0,0.0,0.0,-4.68,0.99,8.55
1738246882.427096,5154,0,0,,0.0,-0.17,0.16,0.85,0.48,0.55,-3.94,0.78,-13.16,-2.43,8.69,0.0,0.0,0.0,-4.35,1.07,8.72
1738246882.4454765,5155,0,0,,0.0,-0.14,0.15,0.85,0.48,0.57,-3.82,0.59,-12.8,-1.71,6.59,0.0,0.0,0.0,-3.69,1.21,9.0
1738246882.4613879,5156,0,0,,0.0,-0.11,0.14,0.86,0.48,0.57,-3.47,0.4,-12.32,-1.58,6.01,0.0,0.0,0.0,-3.1,1.33,9.2
1738246882.477137,5157,0,0,,0.0,-0.09,0.13,0.86,0.48,0.41,-2.79,0.18,-10.68,-1.0,4.01,0.0,0.0,0.0,-2.84,1.37,9.28
1738246882.4951851,5158,0,0,,0.0,-0.07,0.13,0.86,0.48,0.3,-2.37,0.12,-10.3,-0.18,3.52,0.0,0.0,0.0,-2.46,1.42,9.38
1738246882.5116327,5159,0,0,,0.0,-0.06,0.12,0.87,0.48,0.07,-1.43,0.19,-10.3,0.31,3.23,0.0,0.0,0.0,-2.23,1.43,9.44
1738246882.5271459,5160,0,0,,0.0,-0.06,0.12,0.87,0.48,0.04,-0.69,0.51,-13.02,0.01,5.68,0.0,0.0,0.0,-2.16,1.45,9.45
1738246882.5451348,5161,0,0,,0.0,-0.06,0.12,0.87,0.48,0.08,-0.63,0.65,-11.07,-2.19,3.3,0.0,0.0,0.0,-2.04,1.48,9.47
1738246882.5615675,5162,0,0,,0.0,-0.05,0.12,0.87,0.47,-0.01,-0.18,0.46,-10.61,-2.59,2.74,0.0,0.0,0.0,-2.02,1.49,9.47
1738246882.57654,5163,0,0,,0.0,-0.06,0.12,0.87,0.47,-0.11,0.38,0.14,-10.66,-1.54,2.89,0.0,0.0,0.0,-2.06,1.48,9.47
1738246882.5952616,5164,0,0,,0.0,-0.06,0.12,0.87,0.47,-0.27,0.65,0.04,-9.28,-1.51,4.25,0.0,0.0,0.0,-2.2,1.43,9.44
1738246882.6113508,5165,0,0,,0.0,-0.07,0.12,0.87,0.47,-0.25,1.01,-0.06,-8.4,-0.28,6.59,0.0,0.0,0.0,-2.39,1.38,9.4
1738246882.6265,5166,0,0,,0.0,-0.08,0.12,0.87,0.47,0.06,0.87,-0.15,11.58,0.95,19.97,0.0,0.0,0.0,-2.47,1.38,9.38
1738246882.645128,5167,0,0,,0.0,-0.09,0.13,0.87,0.48,0.48,0.93,-0.52,-2.03,3.71,16.65,0.0,0.0,0.0,-2.7,1.42,9.31
1738246882.6615844,5168,0,0,,0.0,-0.1,0.14,0.86,0.47,0.3,1.6,-0.23,-4.77,1.91,3.12,0.0,0.0,0.0,-3.0,1.48,9.21
1738246882.6769445,5169,0,0,,0.0,-0.1,0.15,0.86,0.47,0.6,1.42,0.08,-6.42,-2.6,9.65,0.0,0.0,0.0,-3.13,1.54,9.16
1738246882.6949472,5170,0,0,,0.0,-0.11,0.16,0.86,0.47,0.78,1.1,-0.04,-3.95,2.09,10.98,0.0,0.0,0.0,-3.31,1.67,9.07
1738246882.7115247,5171,0,0,,0.0,-0.11,0.17,0.86,0.47,0.9,0.9,0.04,-2.61,3.92,8.73,0.0,0.0,0.0,-3.47,1.84,8.98
1738246882.726748,5172,0,0,,0.0,-0.11,0.18,0.86,0.47,0.61,1.04,0.35,-5.07,2.73,9.39,0.0,0.0,0.0,-3.56,1.91,8.93
1738246882.7454135,5173,0,0,,0.0,-0.12,0.19,0.86,0.47,0.52,0.96,0.39,-4.64,1.91,9.45,0.0,0.0,0.0,-3.71,2.02,8.84
1738246882.7620337,5174,0,0,,0.0,-0.12,0.19,0.86,0.46,0.47,0.9,0.27,-4.34,2.28,9.78,0.0,0.0,0.0,-3.84,2.11,8.77
1738246882.7768447,5175,0,0,,0.0,-0.13,0.2,0.86,0.46,0.17,0.68,0.15,-3.6,4.02,8.1,0.0,0.0,0.0,-3.89,2.13,8.74
1738246882.7951686,5176,0,0,,0.0,-0.13,0.2,0.86,0.46,-0.01,0.67,0.03,-3.47,1.64,7.73,0.0,0.0,0.0,-4.0,2.12,8.69
1738246882.8121223,5177,0,0,,0.0,-0.14,0.2,0.85,0.46,-0.14,0.6,-0.14,-4.66,2.73,8.4,0.0,0.0,0.0,-4.11,2.08,8.65
1738246882.827007,5178,0,0,,0.0,-0.14,0.2,0.85,0.46,-0.37,0.62,-0.28,-4.54,3.03,9.38,0.0,0.0,0.0,-4.17,2.03,8.63
1738246882.8449273,5179,0,0,,0.0,-0.15,0.2,0.85,0.46,-0.49,0.56,-0.37,-4.43,1.73,8.71,0.0,0.0,0.0,-4.28,1.91,8.61
1738246882.862098,5180,0,0,,0.0,-0.16,0.19,0.85,0.46,-0.59,0.56,-0.43,-4.73,1.66,9.02,0.0,0.0,0.0,-4.38,1.78,8.58
1738246882.8771505,5181,0,0,,0.0,-0.16,0.19,0.85,0.46,-0.59,0.47,-0.42,-5.55,1.74,9.63,0.0,0.0,0.0,-4.43,1.71,8.57
1738246882.8953326,5182,0,0,,0.0,-0.17,0.19,0.85,0.47,-0.53,0.35,-0.37,-5.18,0.7,9.16,0.0,0.0,0.0,-4.49,1.6,8.56
1738246882.9119442,5183,0,0,,0.0,-0.17,0.19,0.85,0.47,-0.36,0.25,-0.23,-5.37,0.6,8.88,0.0,0.0,0.0,-4.54,1.53,8.55
1738246882.9271798,5184,0,0,,0.0,-0.17,0.19,0.85,0.47,-0.19,0.17,-0.11,-5.12,0.84,9.03,0.0,0.0,0.0,-4.55,1.51,8.55
1738246882.944862,5185,0,0,,0.0,-0.17,0.19,0.85,0.47,-0.12,0.12,-0.07,-4.58,1.39,8.6,0.0,0.0,0.0,-4.57,1.49,8.54
1738246882.962023,5186,0,0,,0.0,-0.17,0.19,0.85,0.47,-0.05,0.12,-0.01,-4.85,1.24,8.57,0.0,0.0,0.0,-4.59,1.48,8.53
1738246882.9766388,5187,0,0,,0.0,-0.17,0.19,0.85,0.47,0.01,0.11,0.01,-3.91,1.74,8.87,0.0,0.0,0.0,-4.6,1.48,8.52
1738246882.9952686,5188,0,0,,0.0,-0.18,0.19,0.85,0.47,0.04,0.08,0.01,-4.43,1.59,8.4,0.0,0.0,0.0,-4.62,1.49,8.51
1738246883.011831,5189,0,0,,0.0,-0.18,0.19,0.85,0.47,0.06,0.14,-0.0,-4.72,1.44,8.6,0.0,0.0,0.0,-4.64,1.5,8.5
1738246883.0276496,5190,0,0,,0.0,-0.18,0.19,0.85,0.47,0.09,0.13,0.01,-4.15,1.68,8.8,0.0,0.0,0.0,-4.65,1.51,8.49
1738246883.045391,5191,0,0,,0.0,-0.18,0.19,0.85,0.47,0.11,0.09,0.01,-5.0,1.35,8.54,0.0,0.0,0.0,-4.67,1.53,8.48
1738246883.062281,5192,0,0,,0.0,-0.18,0.19,0.85,0.47,0.16,0.08,0.03,-5.09,1.36,8.28,0.0,0.0,0.0,-4.68,1.56,8.47
1738246883.077176,5193,0,0,,0.0,-0.18,0.19,0.85,0.47,0.15,0.02,0.05,-3.88,1.67,8.81,0.0,0.0,0.0,-4.68,1.57,8.46
1738246883.0952384,5194,0,0,,0.0,-0.18,0.19,0.85,0.47,0.13,0.05,0.05,-4.96,1.43,8.51,0.0,0.0,0.0,-4.69,1.6,8.45
1738246883.1122622,5195,0,0,,0.0,-0.18,0.19,0.85,0.46,0.11,0.05,0.05,-4.86,1.7,8.32,0.0,0.0,0.0,-4.7,1.62,8.45
1738246883.1273458,5196,0,0,,0.0,-0.18,0.2,0.85,0.46,0.09,0.01,0.05,-3.95,1.85,8.78,0.0,0.0,0.0,-4.7,1.63,8.44
1738246883.145088,5197,0,0,,0.0,-0.18,0.2,0.85,0.46,0.08,0.03,0.05,-4.33,2.02,8.46,0.0,0.0,0.0,-4.7,1.65,8.44
1738246883.1624532,5198,0,0,,0.0,-0.18,0.2,0.85,0.46,0.08,0.07,0.04,-4.87,1.75,8.29,0.0,0.0,0.0,-4.71,1.67,8.43
1738246883.1771705,5199,0,0,,0.0,-0.18,0.2,0.85,0.46,0.08,0.04,0.05,-3.99,1.71,8.7,0.0,0.0,0.0,-4.71,1.68,8.43
1738246883.195808,5200,0,0,,0.0,-0.18,0.2,0.85,0.46,0.08,0.07,0.04,-4.45,1.68,8.53,0.0,0.0,0.0,-4.72,1.69,8.42
1738246883.2129087,5201,0,0,,0.0,-0.18,0.2,0.85,0.46,0.08,0.09,0.04,-5.68,1.31,8.21,0.0,0.0,0.0,-4.73,1.71,8.41
1738246883.2277858,5202,0,0,,0.0,-0.18,0.2,0.85,0.46,0.08,0.05,0.03,-4.3,1.51,8.61,0.0,0.0,0.0,-4.73,1.72,8.41
1738246883.2453403,5203,0,0,,0.0,-0.18,0.2,0.85,0.46,0.07,0.06,0.02,-4.83,1.66,8.27,0.0,0.0,0.0,-4.75,1.73,8.4
1738246883.263228,5204,0,0,,0.0,-0.18,0.2,0.84,0.46,0.07,0.08,0.01,-5.11,1.47,8.29,0.0,0.0,0.0,-4.76,1.74,8.39
1738246883.277902,5205,0,0,,0.0,-0.18,0.2,0.84,0.46,0.07,0.06,0.01,-4.42,1.72,8.59,0.0,0.0,0.0,-4.76,1.75,8.38
1738246883.2960684,5206,0,0,,0.0,-0.18,0.2,0.84,0.46,0.06,0.07,0.0,-4.32,1.77,8.45,0.0,0.0,0.0,-4.77,1.76,8.38
1738246883.3130014,5207,0,0,,0.0,-0.18,0.2,0.84,0.46,0.06,0.07,-0.01,-5.55,1.36,8.16,0.0,0.0,0.0,-4.78,1.76,8.37
1738246883.327689,5208,0,0,,0.0,-0.18,0.2,0.84,0.46,0.05,0.06,-0.01,-4.45,1.75,8.39,0.0,0.0,0.0,-4.79,1.77,8.36
1738246883.346153,5209,0,0,,0.0,-0.18,0.21,0.84,0.46,0.06,0.07,-0.02,-5.27,1.54,8.32,0.0,0.0,0.0,-4.8,1.78,8.36
1738246883.3636768,5210,0,0,,0.0,-0.18,0.21,0.84,0.46,0.06,0.09,-0.02,-5.16,1.37,8.28,0.0,0.0,0.0,-4.82,1.78,8.34
1738246883.3775716,5211,0,0,,0.0,-0.18,0.21,0.84,0.46,0.07,0.1,-0.03,-4.6,1.73,8.38,0.0,0.0,0.0,-4.83,1.79,8.34
1738246883.3958979,5212,0,0,,0.0,-0.18,0.21,0.84,0.46,0.07,0.12,-0.04,-5.02,1.79,8.28,0.0,0.0,0.0,-4.85,1.8,8.32
1738246883.4135725,5213,0,0,,0.0,-0.18,0.21,0.84,0.46,0.07,0.16,-0.06,-4.68,2.08,8.43,0.0,0.0,0.0,-4.88,1.8,8.31
1738246883.4287863,5214,0,0,,0.0,-0.18,0.21,0.84,0.46,0.08,0.22,-0.08,-4.91,1.75,8.08,0.0,0.0,0.0,-4.9,1.81,8.29
1738246883.4460733,5215,0,0,,0.0,-0.18,0.21,0.84,0.46,0.08,0.26,-0.09,-4.99,1.61,8.16,0.0,0.0,0.0,-4.94,1.81,8.26
1738246883.4637334,5216,0,0,,0.0,-0.19,0.21,0.84,0.46,0.1,0.38,-0.1,-4.39,1.94,8.7,0.0,0.0,0.0,-5.0,1.81,8.23
1738246883.478659,5217,0,0,,0.0,-0.19,0.21,0.84,0.46,0.12,0.52,-0.11,-4.94,1.53,8.34,0.0,0.0,0.0,-5.04,1.81,8.21
1738246883.4961512,5218,0,0,,0.0,-0.19,0.22,0.84,0.46,0.12,0.6,-0.12,-5.13,1.51,8.17,0.0,0.0,0.0,-5.14,1.82,8.14
1738246883.5144417,5219,0,0,,0.0,-0.2,0.22,0.83,0.46,0.14,0.77,-0.15,-5.17,1.76,8.35,0.0,0.0,0.0,-5.27,1.83,8.05
1738246883.5290942,5220,0,0,,0.0,-0.2,0.23,0.83,0.46,0.14,1.01,-0.18,-4.61,1.83,8.57,0.0,0.0,0.0,-5.36,1.83,8.0
1738246883.546418,5221,0,0,,0.0,-0.21,0.23,0.83,0.46,0.12,1.17,-0.2,-5.92,2.05,8.38,0.0,0.0,0.0,-5.55,1.83,7.87
1738246883.5637624,5222,0,0,,0.0,-0.22,0.24,0.82,0.46,0.1,1.33,-0.23,-3.6,2.21,8.06,0.0,0.0,0.0,-5.77,1.81,7.71
1738246883.579775,5223,0,0,,0.0,-0.23,0.24,0.82,0.46,0.01,1.71,-0.38,-5.68,2.07,7.42,0.0,0.0,0.0,-5.91,1.79,7.61
1738246883.5967455,5224,0,0,,0.0,-0.25,0.25,0.82,0.46,-0.03,1.86,-0.43,-7.53,1.61,7.68,0.0,0.0,0.0,-6.21,1.73,7.38
1738246883.6141684,5225,0,0,,0.0,-0.27,0.26,0.81,0.46,-0.12,2.21,-0.52,-5.59,1.51,7.7,0.0,0.0,0.0,-6.54,1.65,7.11
1738246883.629947,5226,0,0,,0.0,-0.28,0.26,0.8,0.46,-0.13,2.49,-0.54,-5.62,1.6,7.67,0.0,0.0,0.0,-6.72,1.61,6.95
1738246883.6466157,5227,0,0,,0.0,-0.3,0.27,0.79,0.46,-0.13,2.63,-0.58,-6.83,1.19,6.45,0.0,0.0,0.0,-7.09,1.51,6.59
1738246883.6642244,5228,0,0,,0.0,-0.33,0.28,0.78,0.45,-0.0,2.91,-0.65,-6.61,1.61,7.05,0.0,0.0,0.0,-7.48,1.42,6.17
1738246883.680579,5229,0,0,,0.0,-0.34,0.29,0.77,0.45,-0.0,3.17,-0.72,-6.93,1.64,6.71,0.0,0.0,0.0,-7.67,1.37,5.94
1738246883.6968052,5230,0,0,,0.0,-0.37,0.3,0.76,0.45,-0.05,3.39,-0.8,-8.23,1.9,6.48,0.0,0.0,0.0,-8.08,1.23,5.41
1738246883.7145321,5231,0,0,,0.0,-0.4,0.31,0.74,0.44,-0.23,4.01,-1.04,-8.88,1.22,9.05,0.0,0.0,0.0,-8.53,1.03,4.71
1738246883.7300339,5232,0,0,,0.0,-0.42,0.32,0.73,0.44,-0.13,5.39,-1.06,-8.73,1.95,9.9,0.0,0.0,0.0,-8.77,0.94,4.26
1738246883.7472806,5233,0,0,,0.0,-0.47,0.34,0.7,0.42,-0.12,5.88,-1.01,-11.93,3.98,10.87,0.0,0.0,0.0,-9.23,0.73,3.22
1738246883.7640424,5234,0,0,,0.0,-0.52,0.36,0.66,0.41,-0.33,6.44,-1.66,-12.68,4.94,11.96,0.0,0.0,0.0,-9.58,0.39,2.02
1738246883.7805834,5235,0,0,,0.0,-0.54,0.36,0.64,0.4,-0.38,6.77,-1.74,-13.53,5.71,13.67,0.0,0.0,0.0,-9.7,0.22,1.39
1738246883.7970831,5236,0,0,,0.0,-0.58,0.38,0.6,0.4,-0.2,6.52,-1.71,-16.55,8.62,14.83,0.0,0.0,0.0,-9.79,-0.05,0.37
1738246883.814691,5237,0,0,,0.0,-0.59,0.37,0.59,0.4,0.03,1.88,-1.15,-18.97,10.43,20.22,0.0,0.0,0.0,-9.8,-0.28,0.19
1738246883.831361,5238,0,0,,0.0,-0.6,0.36,0.6,0.4,-1.62,-0.5,-1.15,-6.52,-0.53,7.27,0.0,0.0,0.0,-9.79,-0.39,0.23
1738246883.8474007,5239,0,0,,0.0,-0.6,0.35,0.6,0.4,-0.77,-0.71,-1.17,-3.99,1.14,6.8,0.0,0.0,0.0,-9.77,-0.63,0.34
1738246883.8646457,5240,0,0,,0.0,-0.6,0.34,0.6,0.4,-0.36,-0.81,-1.0,-4.57,3.39,7.34,0.0,0.0,0.0,-9.75,-0.81,0.51
1738246883.8817778,5241,0,0,,0.0,-0.6,0.33,0.61,0.41,-0.37,-1.41,-0.69,-3.3,1.73,6.89,0.0,0.0,0.0,-9.74,-0.88,0.64
1738246883.8973267,5242,0,0,,0.0,-0.59,0.32,0.62,0.42,-0.03,-2.05,-0.32,-3.73,1.33,6.25,0.0,0.0,0.0,-9.7,-0.96,1.0
1738246883.9149075,5243,0,0,,0.0,-0.57,0.31,0.63,0.42,0.06,-2.33,-0.18,-4.06,1.06,5.26,0.0,0.0,0.0,-9.64,-0.98,1.46
1738246883.9317787,5244,0,0,,0.0,-0.57,0.3,0.64,0.43,0.07,-2.82,-0.04,-4.62,-0.09,5.01,0.0,0.0,0.0,-9.6,-0.99,1.72
1738246883.9478734,5245,0,0,,0.0,-0.55,0.29,0.65,0.44,0.2,-3.31,-0.1,-5.11,-0.57,4.53,0.0,0.0,0.0,-9.47,-1.0,2.31
1738246883.9651859,5246,0,0,,0.0,-0.52,0.28,0.67,0.45,0.31,-3.52,-0.11,-5.4,-0.34,4.45,0.0,0.0,0.0,-9.29,-0.99,2.97
1738246883.981944,5247,0,0,,0.0,-0.51,0.27,0.68,0.46,0.47,-3.81,0.04,-6.01,0.19,4.66,0.0,0.0,0.0,-9.17,-0.97,3.32
1738246883.9978297,5248,0,0,,0.0,-0.48,0.26,0.7,0.47,0.56,-4.02,0.36,-6.49,-0.45,4.7,0.0,0.0,0.0,-8.89,-0.89,4.02
1738246884.015317,5249,0,0,,0.0,-0.45,0.24,0.72,0.48,0.6,-4.11,0.45,-6.86,-1.46,4.77,0.0,0.0,0.0,-8.55,-0.75,4.73
1738246884.0320928,5250,0,0,,0.0,-0.43,0.24,0.72,0.48,0.87,-4.24,0.35,-8.91,-2.24,5.88,0.0,0.0,0.0,-8.35,-0.68,5.08
1738246884.0477693,5251,0,0,,0.0,-0.39,0.23,0.74,0.5,0.97,-4.35,0.16,-9.89,-0.5,5.55,0.0,0.0,0.0,-7.9,-0.55,5.78
1738246884.0653632,5252,0,0,,0.0,-0.36,0.21,0.76,0.51,0.98,-4.33,0.26,-10.09,1.21,4.61,0.0,0.0,0.0,-7.39,-0.38,6.42
1738246884.0826466,5253,0,0,,0.0,-0.34,0.21,0.76,0.51,0.92,-4.04,0.74,-11.11,1.49,5.54,0.0,0.0,0.0,-7.14,-0.27,6.71
1738246884.0976002,5254,0,0,,0.0,-0.3,0.2,0.78,0.51,0.84,-3.83,1.27,-12.17,0.45,6.93,0.0,0.0,0.0,-6.62,0.0,7.23
1738246884.116068,5255,0,0,,0.0,-0.27,0.19,0.8,0.51,0.76,-3.79,1.44,-12.7,0.18,7.9,0.0,0.0,0.0,-6.07,0.28,7.69
1738246884.1321986,5256,0,0,,0.0,-0.25,0.18,0.8,0.51,0.61,-3.92,1.67,-12.29,-0.11,8.27,0.0,0.0,0.0,-5.76,0.42,7.91
1738246884.14814,5257,0,0,,0.0,-0.21,0.17,0.82,0.5,0.42,-3.99,1.7,-11.9,-0.82,8.96,0.0,0.0,0.0,-5.12,0.68,8.33
1738246884.1654894,5258,0,0,,0.0,-0.18,0.16,0.84,0.49,0.38,-4.0,1.7,-11.72,-0.97,8.96,0.0,0.0,0.0,-4.44,0.89,8.69
1738246884.1829927,5259,0,0,,0.0,-0.16,0.15,0.84,0.49,0.33,-3.86,1.6,-11.98,-1.14,8.86,0.0,0.0,0.0,-4.09,0.98,8.85
1738246884.1979332,5260,0,0,,0.0,-0.13,0.14,0.85,0.48,0.43,-3.58,1.42,-11.88,-2.67,7.85,0.0,0.0,0.0,-3.43,1.16,9.11
1738246884.2154992,5261,0,0,,0.0,-0.09,0.13,0.86,0.48,0.51,-3.35,1.23,-12.1,-2.64,7.61,0.0,0.0,0.0,-2.82,1.32,9.29
1738246884.233218,5262,0,0,,0.0,-0.08,0.13,0.87,0.48,0.52,-2.8,0.82,-11.5,-1.63,5.73,0.0,0.0,0.0,-2.56,1.39,9.36
1738246884.2480037,5263,0,0,,0.0,-0.06,0.12,0.87,0.48,0.45,-2.05,0.55,-10.81,-2.8,3.49,0.0,0.0,0.0,-2.13,1.5,9.45
1738246884.2660263,5264,0,0,,0.0,-0.04,0.12,0.87,0.48,0.47,-1.62,0.41,-10.88,-3.18,2.95,0.0,0.0,0.0,-1.87,1.6,9.49
1738246884.2829452,5265,0,0,,0.0,-0.04,0.12,0.87,0.48,0.54,-0.78,-0.07,-11.37,-3.05,2.82,0.0,0.0,0.0,-1.79,1.65,9.49
1738246884.2979808,5266,0,0,,0.0,-0.04,0.12,0.87,0.48,0.52,-0.18,-0.39,-11.06,-1.17,2.04,0.0,0.0,0.0,-1.75,1.74,9.48
1738246884.3154888,5267,0,0,,0.0,-0.04,0.13,0.87,0.48,0.36,0.11,-0.45,-10.87,-0.57,1.8,0.0,0.0,0.0,-1.77,1.77,9.48
1738246884.3327157,5268,0,0,,0.0,-0.04,0.13,0.86,0.48,-0.19,0.78,-0.41,-9.87,-0.06,2.39,0.0,0.0,0.0,-1.9,1.74,9.46
1738246884.3483608,5269,0,0,,0.0,-0.05,0.13,0.86,0.49,-0.44,1.18,-0.25,-7.32,-0.15,6.71,0.0,0.0,0.0,-2.11,1.65,9.43
1738246884.3656425,5270,0,0,,0.0,-0.06,0.13,0.86,0.49,-0.22,1.15,-0.18,0.3,0.73,9.76,0.0,0.0,0.0,-2.22,1.62,9.41
1738246884.3837922,5271,0,0,,0.0,-0.07,0.14,0.86,0.49,-0.24,1.85,-0.89,-3.02,6.24,15.67,0.0,0.0,0.0,-2.52,1.57,9.34
1738246884.3982415,5272,0,0,,0.0,-0.09,0.14,0.86,0.49,-0.28,2.32,0.16,-10.32,0.44,5.7,0.0,0.0,0.0,-2.93,1.5,9.23
1738246884.4160798,5273,0,0,,0.0,-0.11,0.15,0.86,0.48,-0.11,1.86,0.23,-6.17,-3.5,11.83,0.0,0.0,0.0,-3.09,1.49,9.18
1738246884.4339268,5274,0,0,,0.0,-0.11,0.15,0.86,0.48,0.31,1.18,-0.08,-5.67,-1.4,11.03,0.0,0.0,0.0,-3.31,1.55,9.09
1738246884.4494615,5275,0,0,,0.0,-0.12,0.16,0.85,0.48,0.79,0.9,0.06,-4.03,5.06,11.46,0.0,0.0,0.0,-3.48,1.66,9.01
1738246884.4668334,5276,0,0,,0.0,-0.12,0.17,0.85,0.48,0.57,0.89,0.2,-4.72,2.7,9.06,0.0,0.0,0.0,-3.62,1.77,8.93
1738246884.4838023,5277,0,0,,0.0,-0.12,0.18,0.85,0.48,0.48,0.99,0.36,-3.07,1.95,7.6,0.0,0.0,0.0,-3.7,1.82,8.89
1738246884.498956,5278,0,0,,0.0,-0.13,0.19,0.85,0.47,0.4,0.82,0.25,-3.74,2.45,9.7,0.0,0.0,0.0,-3.85,1.92,8.81
1738246884.5162,5279,0,0,,0.0,-0.13,0.19,0.85,0.47,0.33,0.69,0.21,-3.76,4.48,8.47,0.0,0.0,0.0,-3.96,1.97,8.74
1738246884.534198,5280,0,0,,0.0,-0.13,0.19,0.85,0.47,-0.05,0.66,-0.02,-4.69,1.85,9.08,0.0,0.0,0.0,-4.02,1.97,8.72
1738246884.549042,5281,0,0,,0.0,-0.14,0.19,0.85,0.47,-0.21,0.49,-0.13,-4.46,2.57,8.79,0.0,0.0,0.0,-4.11,1.93,8.68
1738246884.567151,5282,0,0,,0.0,-0.15,0.19,0.85,0.47,-0.27,0.46,-0.18,-4.3,1.66,8.4,0.0,0.0,0.0,-4.2,1.86,8.66
1738246884.5841675,5283,0,0,,0.0,-0.15,0.19,0.85,0.47,-0.35,0.46,-0.25,-4.24,1.25,8.46,0.0,0.0,0.0,-4.24,1.82,8.65
1738246884.5990067,5284,0,0,,0.0,-0.15,0.19,0.85,0.47,-0.36,0.43,-0.26,-4.81,1.97,8.75,0.0,0.0,0.0,-4.32,1.74,8.62
1738246884.6167777,5285,0,0,,0.0,-0.16,0.19,0.85,0.47,-0.41,0.44,-0.28,-5.16,1.58,9.05,0.0,0.0,0.0,-4.4,1.65,8.6
1738246884.6339762,5286,0,0,,0.0,-0.16,0.19,0.85,0.47,-0.41,0.36,-0.28,-5.26,1.51,9.03,0.0,0.0,0.0,-4.43,1.6,8.59
1738246884.6492708,5287,0,0,,0.0,-0.17,0.19,0.84,0.47,-0.28,0.23,-0.2,-4.99,1.02,8.97,0.0,0.0,0.0,-4.48,1.53,8.58
1738246884.6665123,5288,0,0,,0.0,-0.17,0.19,0.84,0.47,-0.2,0.21,-0.15,-5.08,0.76,8.95,0.0,0.0,0.0,-4.52,1.49,8.57
1738246884.6842613,5289,0,0,,0.0,-0.17,0.19,0.84,0.47,-0.07,0.14,-0.06,-4.41,1.17,9.29,0.0,0.0,0.0,-4.53,1.48,8.56
1738246884.698657,5290,0,0,,0.0,-0.17,0.19,0.84,0.47,0.03,0.07,0.01,-4.68,1.31,8.76,0.0,0.0,0.0,-4.54,1.48,8.55
1738246884.716284,5291,0,0,,0.0,-0.17,0.19,0.84,0.47,0.06,0.05,0.03,-4.57,1.08,8.67,0.0,0.0,0.0,-4.55,1.49,8.55
1738246884.7338185,5292,0,0,,0.0,-0.17,0.19,0.84,0.47,0.09,0.05,0.06,-3.99,1.67,8.77,0.0,0.0,0.0,-4.56,1.51,8.54
1738246884.7488396,5293,0,0,,0.0,-0.17,0.19,0.84,0.47,0.09,0.05,0.06,-4.21,1.92,8.67,0.0,0.0,0.0,-4.56,1.53,8.54
1738246884.7666857,5294,0,0,,0.0,-0.17,0.19,0.84,0.47,0.09,0.07,0.05,-4.6,1.56,8.25,0.0,0.0,0.0,-4.57,1.54,8.53
1738246884.784029,5295,0,0,,0.0,-0.17,0.19,0.84,0.47,0.11,0.09,0.04,-4.04,1.79,8.52,0.0,0.0,0.0,-4.58,1.56,8.52
1738246884.798486,5296,0,0,,0.0,-0.17,0.19,0.84,0.47,0.13,0.15,0.02,-4.46,1.56,8.45,0.0,0.0,0.0,-4.6,1.58,8.51
1738246884.8164089,5297,0,0,,0.0,-0.17,0.19,0.84,0.47,0.13,0.18,0.0,-4.53,1.83,8.39,0.0,0.0,0.0,-4.61,1.59,8.5
1738246884.8343155,5298,0,0,,0.0,-0.17,0.19,0.84,0.47,0.1,0.18,-0.02,-4.42,1.57,8.71,0.0,0.0,0.0,-4.64,1.61,8.48
1738246884.849368,5299,0,0,,0.0,-0.17,0.2,0.84,0.47,0.05,0.15,-0.01,-5.11,1.32,8.59,0.0,0.0,0.0,-4.67,1.62,8.46
1738246884.8674614,5300,0,0,,0.0,-0.17,0.2,0.84,0.47,0.05,0.14,-0.0,-5.14,1.5,8.37,0.0,0.0,0.0,-4.68,1.63,8.45
1738246884.884658,5301,0,0,,0.0,-0.17,0.2,0.84,0.47,0.07,0.05,0.02,-4.34,1.39,8.66,0.0,0.0,0.0,-4.69,1.64,8.45
1738246884.8987782,5302,0,0,,0.0,-0.17,0.2,0.84,0.47,0.09,0.08,0.04,-4.75,1.52,8.5,0.0,0.0,0.0,-4.7,1.65,8.44
1738246884.9165077,5303,0,0,,0.0,-0.17,0.2,0.84,0.47,0.09,0.09,0.04,-5.48,1.34,8.22,0.0,0.0,0.0,-4.71,1.66,8.43
1738246884.9342036,5304,0,0,,0.0,-0.17,0.2,0.84,0.47,0.09,0.07,0.03,-4.53,1.6,8.61,0.0,0.0,0.0,-4.72,1.68,8.42
1738246884.9493062,5305,0,0,,0.0,-0.17,0.2,0.84,0.47,0.07,0.07,0.01,-4.74,1.53,8.38,0.0,0.0,0.0,-4.74,1.69,8.41
1738246884.9674983,5306,0,0,,0.0,-0.18,0.2,0.84,0.47,0.07,0.07,0.01,-5.34,1.47,8.19,0.0,0.0,0.0,-4.74,1.7,8.41
1738246884.9841354,5307,0,0,,0.0,-0.18,0.2,0.84,0.47,0.06,0.04,0.01,-4.17,1.57,8.67,0.0,0.0,0.0,-4.75,1.71,8.4
1738246884.9989457,5308,0,0,,0.0,-0.18,0.2,0.84,0.47,0.06,0.07,0.01,-5.02,1.44,8.29,0.0,0.0,0.0,-4.76,1.72,8.39
1738246885.0168593,5309,0,0,,0.0,-0.18,0.2,0.84,0.47,0.06,0.07,0.01,-5.26,1.65,8.18,0.0,0.0,0.0,-4.77,1.72,8.39
1738246885.0345283,5310,0,0,,0.0,-0.18,0.2,0.84,0.47,0.05,0.06,0.01,-4.79,1.8,8.44,0.0,0.0,0.0,-4.78,1.73,8.38
1738246885.049797,5311,0,0,,0.0,-0.18,0.2,0.84,0.47,0.06,0.06,0.0,-4.64,1.71,8.3,0.0,0.0,0.0,-4.79,1.74,8.37
1738246885.0679383,5312,0,0,,0.0,-0.18,0.21,0.84,0.47,0.06,0.08,-0.0,-5.52,1.54,8.16,0.0,0.0,0.0,-4.79,1.75,8.37
1738246885.0854049,5313,0,0,,0.0,-0.18,0.21,0.84,0.47,0.05,0.07,-0.01,-4.97,1.76,8.38,0.0,0.0,0.0,-4.81,1.76,8.36
1738246885.099702,5314,0,0,,0.0,-0.18,0.21,0.84,0.47,0.05,0.08,-0.02,-5.42,1.6,8.11,0.0,0.0,0.0,-4.82,1.76,8.35
1738246885.1175692,5315,0,0,,0.0,-0.18,0.21,0.84,0.47,0.05,0.1,-0.04,-5.08,1.7,8.34,0.0,0.0,0.0,-4.83,1.76,8.34
1738246885.134765,5316,0,0,,0.0,-0.18,0.21,0.84,0.47,0.06,0.12,-0.04,-4.77,1.89,8.39,0.0,0.0,0.0,-4.85,1.77,8.33
1738246885.1502512,5317,0,0,,0.0,-0.18,0.21,0.84,0.47,0.06,0.16,-0.05,-5.08,1.59,8.17,0.0,0.0,0.0,-4.87,1.77,8.31
1738246885.1672924,5318,0,0,,0.0,-0.18,0.21,0.84,0.47,0.06,0.2,-0.07,-5.26,1.63,8.17,0.0,0.0,0.0,-4.89,1.78,8.3
1738246885.1849992,5319,0,0,,0.0,-0.18,0.21,0.84,0.47,0.07,0.29,-0.11,-4.27,1.7,8.52,0.0,0.0,0.0,-4.94,1.78,8.28
1738246885.19993,5320,0,0,,0.0,-0.18,0.21,0.84,0.47,0.09,0.41,-0.13,-4.64,1.53,8.31,0.0,0.0,0.0,-5.0,1.78,8.24
1738246885.217773,5321,0,0,,0.0,-0.19,0.22,0.83,0.47,0.1,0.48,-0.13,-5.5,1.4,8.14,0.0,0.0,0.0,-5.04,1.78,8.21
1738246885.2350273,5322,0,0,,0.0,-0.19,0.22,0.83,0.47,0.13,0.62,-0.13,-4.74,1.84,8.26,0.0,0.0,0.0,-5.14,1.79,8.15
1738246885.250371,5323,0,0,,0.0,-0.2,0.22,0.83,0.47,0.15,0.77,-0.15,-4.78,1.6,8.18,0.0,0.0,0.0,-5.26,1.8,8.07
1738246885.267923,5324,0,0,,0.0,-0.2,0.23,0.83,0.47,0.15,0.87,-0.17,-4.65,1.92,8.39,0.0,0.0,0.0,-5.33,1.8,8.02
1738246885.2855644,5325,0,0,,0.0,-0.21,0.23,0.83,0.47,0.15,1.08,-0.23,-3.99,2.09,6.95,0.0,0.0,0.0,-5.49,1.8,7.91
1738246885.3000712,5326,0,0,,0.0,-0.22,0.24,0.82,0.47,0.12,1.34,-0.25,-6.25,2.28,7.89,0.0,0.0,0.0,-5.7,1.79,7.77
1738246885.3178668,5327,0,0,,0.0,-0.23,0.24,0.82,0.47,0.12,1.37,-0.26,-3.13,2.12,6.93,0.0,0.0,0.0,-5.81,1.79,7.69
1738246885.33594,5328,0,0,,0.0,-0.24,0.25,0.81,0.47,0.05,1.81,-0.43,-7.36,2.27,8.8,0.0,0.0,0.0,-6.07,1.75,7.49
1738246885.3506422,5329,0,0,,0.0,-0.25,0.26,0.81,0.47,-0.03,2.05,-0.48,-6.41,1.81,7.62,0.0,0.0,0.0,-6.37,1.7,7.25
1738246885.368522,5330,0,0,,0.0,-0.27,0.26,0.8,0.47,-0.1,2.21,-0.5,-7.31,1.86,8.05,0.0,0.0,0.0,-6.53,1.66,7.12
1738246885.3855736,5331,0,0,,0.0,-0.28,0.27,0.79,0.47,-0.13,2.4,-0.49,-6.53,1.79,7.19,0.0,0.0,0.0,-6.86,1.58,6.82
1738246885.4002097,5332,0,0,,0.0,-0.31,0.28,0.79,0.46,-0.14,2.58,-0.55,-7.06,1.13,6.16,0.0,0.0,0.0,-7.2,1.49,6.48
1738246885.4188085,5333,0,0,,0.0,-0.33,0.29,0.77,0.46,-0.13,2.67,-0.56,-6.16,1.6,7.35,0.0,0.0,0.0,-7.37,1.44,6.29
1738246885.4358194,5334,0,0,,0.0,-0.34,0.29,0.77,0.46,-0.14,2.89,-0.58,-6.67,1.75,6.19,0.0,0.0,0.0,-7.72,1.34,5.88
1738246885.4511695,5335,0,0,,0.0,-0.37,0.3,0.76,0.45,-0.29,3.36,-0.75,-8.14,2.13,6.48,0.0,0.0,0.0,-8.09,1.21,5.39
1738246885.4686468,5336,0,0,,0.0,-0.4,0.31,0.74,0.44,-0.46,3.75,-0.87,-7.96,2.08,8.92,0.0,0.0,0.0,-8.29,1.11,5.1
1738246885.485817,5337,0,0,,0.0,-0.42,0.32,0.73,0.44,-0.57,4.87,-1.08,-11.24,2.28,9.86,0.0,0.0,0.0,-8.73,0.89,4.36
1738246885.500571,5338,0,0,,0.0,-0.46,0.33,0.7,0.43,-0.48,5.47,-1.42,-12.31,3.15,9.82,0.0,0.0,0.0,-9.15,0.63,3.44
1738246885.5185814,5339,0,0,,0.0,-0.51,0.34,0.67,0.42,-0.45,5.63,-1.79,-11.32,4.1,10.73,0.0,0.0,0.0,-9.34,0.46,2.94
1738246885.5358613,5340,0,0,,0.0,-0.53,0.35,0.65,0.42,-0.55,6.13,-2.06,-15.97,1.1,18.24,0.0,0.0,0.0,-9.63,0.06,1.84
1738246885.5513797,5341,0,0,,0.0,-0.57,0.36,0.62,0.41,0.28,3.47,-1.65,-15.78,10.29,17.07,0.0,0.0,0.0,-9.75,-0.27,0.97
1738246885.5692072,5342,0,0,,0.0,-0.58,0.35,0.61,0.41,-0.06,1.18,-1.42,-11.9,10.73,15.92,0.0,0.0,0.0,-9.76,-0.4,0.86
1738246885.5862398,5343,0,0,,0.0,-0.58,0.35,0.61,0.41,-0.96,0.5,-1.21,-8.48,0.23,9.51,0.0,0.0,0.0,-9.75,-0.64,0.77
1738246885.6008997,5344,0,0,,0.0,-0.59,0.34,0.6,0.42,-0.29,0.04,-1.06,-6.27,4.98,10.91,0.0,0.0,0.0,-9.74,-0.86,0.72
1738246885.6188896,5345,0,0,,0.0,-0.59,0.33,0.6,0.42,-0.47,-0.31,-0.92,-5.21,3.11,9.8,0.0,0.0,0.0,-9.73,-0.95,0.75
1738246885.6361063,5346,0,0,,0.0,-0.59,0.32,0.61,0.42,-0.33,-1.06,-0.46,-3.83,1.91,7.62,0.0,0.0,0.0,-9.7,-1.07,0.9
1738246885.6510468,5347,0,0,,0.0,-0.58,0.32,0.61,0.43,-0.09,-1.64,-0.16,-4.0,0.68,6.55,0.0,0.0,0.0,-9.67,-1.11,1.18
1738246885.669467,5348,0,0,,0.0,-0.57,0.31,0.63,0.44,0.0,-1.93,-0.04,-4.1,0.98,6.53,0.0,0.0,0.0,-9.64,-1.11,1.37
1738246885.6861162,5349,0,0,,0.0,-0.56,0.3,0.63,0.44,-0.04,-2.54,0.14,-3.92,-0.72,5.58,0.0,0.0,0.0,-9.57,-1.1,1.81
1738246885.7010832,5350,0,0,,0.0,-0.54,0.29,0.65,0.45,0.12,-3.05,0.2,-4.63,-1.15,5.64,0.0,0.0,0.0,-9.45,-1.06,2.35
1738246885.7194118,5351,0,0,,0.0,-0.52,0.28,0.67,0.46,0.21,-3.28,0.18,-5.21,-1.37,5.75,0.0,0.0,0.0,-9.38,-1.04,2.66
1738246885.7367806,5352,0,0,,0.0,-0.51,0.27,0.68,0.46,0.41,-3.7,0.14,-6.09,-0.39,5.49,0.0,0.0,0.0,-9.17,-0.99,3.31
1738246885.75138,5353,0,0,,0.0,-0.48,0.26,0.69,0.47,0.44,-3.98,0.22,-6.37,-0.8,5.03,0.0,0.0,0.0,-8.89,-0.92,4.01
1738246885.7699206,5354,0,0,,0.0,-0.45,0.24,0.71,0.48,0.54,-4.04,0.32,-7.35,-0.53,5.38,0.0,0.0,0.0,-8.73,-0.88,4.36
1738246885.7867138,5355,0,0,,0.0,-0.43,0.24,0.72,0.49,0.68,-4.16,0.48,-8.4,-1.9,5.56,0.0,0.0,0.0,-8.36,-0.74,5.05
1738246885.8014495,5356,0,0,,0.0,-0.4,0.23,0.74,0.5,0.85,-4.2,0.52,-9.77,0.0,4.82,0.0,0.0,0.0,-7.93,-0.58,5.72
1738246885.8198621,5357,0,0,,0.0,-0.36,0.21,0.76,0.5,0.82,-4.14,0.64,-9.9,0.54,4.37,0.0,0.0,0.0,-7.7,-0.48,6.04
1738246885.8368351,5358,0,0,,0.0,-0.34,0.21,0.76,0.5,0.73,-3.83,1.11,-11.03,1.47,5.23,0.0,0.0,0.0,-7.23,-0.25,6.62
1738246885.8519604,5359,0,0,,0.0,-0.31,0.2,0.78,0.5,0.61,-3.7,1.65,-12.81,0.29,7.2,0.0,0.0,0.0,-6.74,0.03,7.12
1738246885.8710637,5360,0,0,,0.0,-0.28,0.19,0.8,0.5,0.53,-3.74,1.8,-13.17,0.19,7.71,0.0,0.0,0.0,-6.47,0.19,7.36
1738246885.8869078,5361,0,0,,0.0,-0.26,0.19,0.81,0.49,0.22,-3.96,1.92,-12.19,-0.92,6.92,0.0,0.0,0.0,-5.88,0.46,7.82
1738246885.9019136,5362,0,0,,0.0,-0.22,0.17,0.83,0.48,0.06,-3.91,1.85,-12.25,-1.12,7.33,0.0,0.0,0.0,-5.25,0.68,8.25
1738246885.9208229,5363,0,0,,0.0,-0.19,0.16,0.84,0.48,0.02,-3.84,1.78,-12.55,-1.08,8.07,0.0,0.0,0.0,-4.93,0.76,8.44
1738246885.9370162,5364,0,0,,0.0,-0.17,0.15,0.85,0.47,-0.03,-3.72,1.56,-11.74,-1.66,7.16,0.0,0.0,0.0,-4.27,0.91,8.77
1738246885.9525783,5365,0,0,,0.0,-0.14,0.14,0.86,0.47,0.1,-3.35,1.28,-11.88,-1.57,5.88,0.0,0.0,0.0,-3.65,1.02,9.04
1738246885.9710517,5366,0,0,,0.0,-0.11,0.13,0.87,0.46,0.17,-3.11,1.15,-11.78,-1.77,5.33,0.0,0.0,0.0,-3.37,1.08,9.14
1738246885.9872997,5367,0,0,,0.0,-0.1,0.12,0.87,0.46,0.22,-2.42,0.75,-11.97,-1.61,4.67,0.0,0.0,0.0,-2.88,1.17,9.29
1738246886.0022237,5368,0,0,,0.0,-0.09,0.12,0.88,0.46,0.05,-1.6,0.32,-10.22,-2.18,1.69,0.0,0.0,0.0,-2.55,1.21,9.39
1738246886.020977,5369,0,0,,0.0,-0.08,0.11,0.88,0.46,0.03,-1.07,0.13,-10.01,-2.49,1.51,0.0,0.0,0.0,-2.45,1.21,9.41
1738246886.0371163,5370,0,0,,0.0,-0.08,0.11,0.88,0.46,0.04,-0.02,-0.27,-10.76,-2.8,2.4,0.0,0.0,0.0,-2.4,1.22,9.42
1738246886.0521178,5371,0,0,,0.0,-0.09,0.12,0.87,0.46,0.15,0.82,-0.56,-12.3,-2.33,4.38,0.0,0.0,0.0,-2.53,1.21,9.39
1738246886.071194,5372,0,0,,0.0,-0.09,0.12,0.87,0.47,0.37,1.04,-0.54,-14.14,-1.76,6.6,0.0,0.0,0.0,-2.63,1.23,9.36
1738246886.0876384,5373,0,0,,0.0,-0.09,0.13,0.87,0.47,0.49,0.67,-0.28,-12.12,0.99,4.33,0.0,0.0,0.0,-2.78,1.31,9.3
1738246886.102099,5374,0,0,,0.0,-0.1,0.13,0.87,0.47,-0.22,0.69,-0.25,-9.79,-0.83,4.05,0.0,0.0,0.0,-2.9,1.28,9.27
1738246886.121776,5375,0,0,,0.0,-0.11,0.13,0.87,0.47,-0.11,0.79,-0.14,-7.27,1.71,6.64,0.0,0.0,0.0,-2.98,1.27,9.25
1738246886.1373172,5376,0,0,,0.0,-0.11,0.13,0.87,0.47,-0.03,0.77,-0.06,9.31,1.63,15.6,0.0,0.0,0.0,-3.12,1.25,9.21
1738246886.152413,5377,0,0,,0.0,-0.12,0.14,0.86,0.47,-0.01,1.64,-0.32,-6.47,0.06,9.59,0.0,0.0,0.0,-3.38,1.24,9.11
1738246886.1710732,5378,0,0,,0.0,-0.14,0.15,0.86,0.47,0.3,1.7,0.17,-5.77,-3.66,1.96,0.0,0.0,0.0,-3.53,1.27,9.05
1738246886.1875958,5379,0,0,,0.0,-0.14,0.16,0.86,0.46,0.69,1.37,0.18,-5.64,-1.3,11.61,0.0,0.0,0.0,-3.8,1.38,8.93
1738246886.2024024,5380,0,0,,0.0,-0.14,0.17,0.86,0.46,1.0,0.88,0.25,-3.43,4.03,9.92,0.0,0.0,0.0,-3.96,1.55,8.83
1738246886.2216265,5381,0,0,,0.0,-0.15,0.18,0.86,0.46,0.92,0.88,0.44,-5.91,3.73,10.67,0.0,0.0,0.0,-4.03,1.64,8.78
1738246886.2374072,5382,0,0,,0.0,-0.15,0.19,0.86,0.46,0.69,0.55,0.33,-4.77,3.47,8.21,0.0,0.0,0.0,-4.13,1.79,8.7
1738246886.2525048,5383,0,0,,0.0,-0.15,0.19,0.86,0.46,0.52,0.44,0.23,-3.94,3.23,8.24,0.0,0.0,0.0,-4.2,1.87,8.65
1738246886.2712142,5384,0,0,,0.0,-0.15,0.19,0.86,0.46,0.07,0.45,0.0,-3.82,2.08,8.4,0.0,0.0,0.0,-4.24,1.88,8.63
1738246886.2875433,5385,0,0,,0.0,-0.15,0.19,0.86,0.46,-0.09,0.45,-0.14,-3.96,1.58,7.95,0.0,0.0,0.0,-4.32,1.86,8.6
1738246886.30212,5386,0,0,,0.0,-0.16,0.19,0.85,0.46,-0.12,0.48,-0.18,-5.22,1.65,8.43,0.0,0.0,0.0,-4.4,1.82,8.56
1738246886.3213408,5387,0,0,,0.0,-0.16,0.19,0.85,0.46,-0.15,0.5,-0.22,-5.19,1.47,8.65,0.0,0.0,0.0,-4.45,1.8,8.54
1738246886.3372893,5388,0,0,,0.0,-0.17,0.19,0.85,0.46,-0.18,0.4,-0.23,-5.46,2.67,9.06,0.0,0.0,0.0,-4.53,1.75,8.51
1738246886.3525903,5389,0,0,,0.0,-0.17,0.19,0.85,0.46,-0.24,0.33,-0.26,-4.99,1.61,8.93,0.0,0.0,0.0,-4.58,1.69,8.5
1738246886.3727582,5390,0,0,,0.0,-0.17,0.19,0.85,0.46,-0.27,0.21,-0.23,-5.41,1.25,8.4,0.0,0.0,0.0,-4.6,1.65,8.49
1738246886.3878207,5391,0,0,,0.0,-0.18,0.19,0.85,0.46,-0.21,0.14,-0.15,-4.63,1.28,9.06,0.0,0.0,0.0,-4.64,1.6,8.48
1738246886.403519,5392,0,0,,0.0,-0.18,0.19,0.85,0.46,-0.1,0.06,-0.06,-4.3,1.22,9.01,0.0,0.0,0.0,-4.65,1.57,8.48
1738246886.4223123,5393,0,0,,0.0,-0.18,0.19,0.85,0.46,-0.06,0.06,-0.02,-5.0,0.96,8.63,0.0,0.0,0.0,-4.65,1.57,8.48
1738246886.4379437,5394,0,0,,0.0,-0.18,0.19,0.85,0.46,-0.02,0.05,0.02,-4.92,1.31,8.51,0.0,0.0,0.0,-4.66,1.56,8.48
1738246886.4535801,5395,0,0,,0.0,-0.18,0.19,0.85,0.46,0.02,0.02,0.03,-4.3,1.55,8.42,0.0,0.0,0.0,-4.67,1.57,8.47
1738246886.4730697,5396,0,0,,0.0,-0.18,0.19,0.85,0.46,0.03,0.04,0.04,-4.76,1.61,8.44,0.0,0.0,0.0,-4.67,1.57,8.47
1738246886.4881384,5397,0,0,,0.0,-0.18,0.19,0.85,0.46,0.04,0.05,0.03,-4.95,1.52,8.27,0.0,0.0,0.0,-4.68,1.58,8.47
1738246886.5026953,5398,0,0,,0.0,-0.18,0.19,0.85,0.46,0.05,0.02,0.02,-4.68,1.49,8.46,0.0,0.0,0.0,-4.68,1.59,8.46
1738246886.523048,5399,0,0,,0.0,-0.18,0.19,0.85,0.46,0.07,0.02,0.02,-4.38,1.67,8.45,0.0,0.0,0.0,-4.68,1.6,8.46
1738246886.5381753,5400,0,0,,0.0,-0.18,0.19,0.85,0.46,0.09,0.02,0.03,-4.06,1.61,8.53,0.0,0.0,0.0,-4.68,1.61,8.46
1738246886.553517,5401,0,0,,0.0,-0.18,0.19,0.85,0.46,0.11,-0.0,0.04,-4.65,1.7,8.61,0.0,0.0,0.0,-4.68,1.63,8.45
1738246886.573468,5402,0,0,,0.0,-0.18,0.19,0.85,0.46,0.1,0.01,0.05,-4.84,1.3,8.4,0.0,0.0,0.0,-4.68,1.64,8.45
1738246886.588146,5403,0,0,,0.0,-0.18,0.19,0.85,0.46,0.09,-0.01,0.06,-4.12,1.62,8.53,0.0,0.0,0.0,-4.68,1.66,8.45
1738246886.603129,5404,0,0,,0.0,-0.18,0.2,0.85,0.46,0.09,0.01,0.06,-4.42,1.66,8.42,0.0,0.0,0.0,-4.67,1.68,8.45
1738246886.6232421,5405,0,0,,0.0,-0.18,0.2,0.85,0.46,0.06,0.03,0.05,-4.78,1.81,8.3,0.0,0.0,0.0,-4.67,1.69,8.45
1738246886.6383255,5406,0,0,,0.0,-0.17,0.2,0.85,0.46,0.05,0.01,0.03,-4.07,2.13,8.63,0.0,0.0,0.0,-4.67,1.7,8.44
1738246886.6535342,5407,0,0,,0.0,-0.17,0.2,0.85,0.46,0.03,0.0,0.03,-4.56,1.46,8.57,0.0,0.0,0.0,-4.67,1.71,8.44
1738246886.6723034,5408,0,0,,0.0,-0.17,0.2,0.85,0.46,0.04,0.02,0.02,-5.23,1.37,8.26,0.0,0.0,0.0,-4.68,1.71,8.44
1738246886.6881406,5409,0,0,,0.0,-0.17,0.2,0.85,0.46,0.06,0.01,0.03,-4.05,1.49,8.68,0.0,0.0,0.0,-4.68,1.72,8.44
1738246886.7033944,5410,0,0,,0.0,-0.17,0.2,0.85,0.46,0.06,0.04,0.03,-5.0,1.7,8.32,0.0,0.0,0.0,-4.68,1.73,8.43
1738246886.7234492,5411,0,0,,0.0,-0.18,0.2,0.85,0.46,0.06,0.06,0.02,-4.57,1.65,8.37,0.0,0.0,0.0,-4.69,1.74,8.43
1738246886.738347,5412,0,0,,0.0,-0.18,0.2,0.85,0.46,0.06,0.05,0.02,-4.68,1.61,8.55,0.0,0.0,0.0,-4.7,1.75,8.42
1738246886.7532077,5413,0,0,,0.0,-0.18,0.2,0.85,0.46,0.06,0.06,0.02,-4.82,1.58,8.4,0.0,0.0,0.0,-4.71,1.76,8.41
1738246886.7737408,5414,0,0,,0.0,-0.18,0.2,0.85,0.46,0.06,0.06,0.01,-5.23,1.75,8.23,0.0,0.0,0.0,-4.72,1.77,8.41
1738246886.7890751,5415,0,0,,0.0,-0.18,0.2,0.85,0.46,0.06,0.04,0.01,-4.71,1.92,8.49,0.0,0.0,0.0,-4.72,1.78,8.4
1738246886.804303,5416,0,0,,0.0,-0.18,0.2,0.85,0.46,0.06,0.04,0.0,-4.98,1.75,8.24,0.0,0.0,0.0,-4.73,1.79,8.39
1738246886.8235693,5417,0,0,,0.0,-0.18,0.2,0.85,0.46,0.05,0.07,-0.01,-5.46,1.27,8.25,0.0,0.0,0.0,-4.74,1.79,8.39
1738246886.8385963,5418,0,0,,0.0,-0.18,0.2,0.85,0.46,0.06,0.05,-0.0,-4.37,1.78,8.61,0.0,0.0,0.0,-4.75,1.8,8.38
1738246886.8543718,5419,0,0,,0.0,-0.18,0.2,0.85,0.46,0.06,0.05,-0.01,-4.83,1.6,8.28,0.0,0.0,0.0,-4.76,1.81,8.37
1738246886.8745966,5420,0,0,,0.0,-0.18,0.2,0.85,0.46,0.06,0.08,-0.01,-5.41,1.54,8.06,0.0,0.0,0.0,-4.76,1.81,8.37
1738246886.8890834,5421,0,0,,0.0,-0.18,0.21,0.85,0.46,0.07,0.08,-0.02,-4.27,2.1,8.42,0.0,0.0,0.0,-4.77,1.82,8.36
1738246886.903785,5422,0,0,,0.0,-0.18,0.21,0.85,0.46,0.07,0.09,-0.02,-4.58,1.88,8.37,0.0,0.0,0.0,-4.79,1.83,8.35
1738246886.9242542,5423,0,0,,0.0,-0.18,0.21,0.85,0.46,0.07,0.12,-0.04,-5.21,1.64,8.14,0.0,0.0,0.0,-4.8,1.84,8.34
1738246886.9395676,5424,0,0,,0.0,-0.18,0.21,0.85,0.46,0.07,0.16,-0.07,-4.72,1.88,8.27,0.0,0.0,0.0,-4.83,1.84,8.33
1738246886.9541202,5425,0,0,,0.0,-0.18,0.21,0.85,0.46,0.07,0.2,-0.08,-4.74,1.82,8.33,0.0,0.0,0.0,-4.87,1.84,8.3
1738246886.9738758,5426,0,0,,0.0,-0.18,0.21,0.84,0.46,0.08,0.32,-0.13,-4.47,1.95,8.66,0.0,0.0,0.0,-4.89,1.84,8.29
1738246886.988593,5427,0,0,,0.0,-0.18,0.21,0.84,0.46,0.09,0.45,-0.15,-4.75,2.05,8.38,0.0,0.0,0.0,-4.95,1.84,8.25
1738246887.004113,5428,0,0,,0.0,-0.19,0.21,0.84,0.46,0.1,0.53,-0.16,-5.02,1.58,8.29,0.0,0.0,0.0,-5.04,1.84,8.2
1738246887.024627,5429,0,0,,0.0,-0.19,0.22,0.84,0.46,0.12,0.74,-0.19,-4.98,1.63,8.36,0.0,0.0,0.0,-5.1,1.84,8.16
1738246887.0402544,5430,0,0,,0.0,-0.2,0.22,0.84,0.46,0.13,0.99,-0.22,-5.84,2.16,9.92,0.0,0.0,0.0,-5.25,1.84,8.07
1738246887.05648,5431,0,0,,0.0,-0.21,0.23,0.83,0.46,0.12,1.18,-0.22,-4.02,1.89,7.47,0.0,0.0,0.0,-5.44,1.84,7.94
1738246887.0761511,5432,0,0,,0.0,-0.22,0.23,0.83,0.46,0.13,1.32,-0.28,-4.3,1.76,7.11,0.0,0.0,0.0,-5.67,1.82,7.78
1738246887.093043,5433,0,0,,0.0,-0.23,0.24,0.83,0.46,0.06,1.69,-0.39,-4.89,1.8,6.96,0.0,0.0,0.0,-5.8,1.8,7.69
1738246887.1108398,5434,0,0,,0.0,-0.24,0.24,0.82,0.46,-0.04,1.98,-0.45,-6.28,2.04,8.12,0.0,0.0,0.0,-6.09,1.75,7.47
1738246887.1272347,5435,0,0,,0.0,-0.26,0.25,0.81,0.45,-0.1,2.21,-0.47,-5.18,1.48,7.78,0.0,0.0,0.0,-6.42,1.68,7.21
1738246887.145625,5436,0,0,,0.0,-0.28,0.26,0.8,0.45,-0.15,2.39,-0.49,-6.65,1.99,7.38,0.0,0.0,0.0,-6.59,1.64,7.06
1738246887.1628401,5437,0,0,,0.0,-0.31,0.27,0.8,0.45,-0.17,2.61,-0.55,-6.92,1.34,6.82,0.0,0.0,0.0,-6.95,1.55,6.74
1738246887.1787236,5438,0,0,,0.0,-0.32,0.27,0.79,0.45,-0.11,2.83,-0.6,-6.29,1.69,6.82,0.0,0.0,0.0,-7.32,1.45,6.35
1738246887.196375,5439,0,0,,0.0,-0.34,0.28,0.78,0.44,-0.11,2.97,-0.63,-6.31,1.99,6.75,0.0,0.0,0.0,-7.7,1.34,5.91
1738246887.2138002,5440,0,0,,0.0,-0.37,0.29,0.76,0.44,-0.25,3.38,-0.81,-7.29,1.95,6.61,0.0,0.0,0.0,-8.11,1.17,5.38
1738246887.2289786,5441,0,0,,0.0,-0.39,0.3,0.75,0.44,-0.46,4.16,-1.01,-8.07,0.44,9.53,0.0,0.0,0.0,-8.33,1.07,5.05
1738246887.2469485,5442,0,0,,0.0,-0.43,0.32,0.73,0.43,-0.19,4.88,-1.1,-11.12,2.89,10.8,0.0,0.0,0.0,-8.81,0.87,4.21
1738246887.2637384,5443,0,0,,0.0,-0.48,0.33,0.7,0.42,-0.24,5.61,-1.32,-12.42,3.33,9.6,0.0,0.0,0.0,-9.24,0.58,3.21
1738246887.2789052,5444,0,0,,0.0,-0.5,0.34,0.68,0.42,-0.3,6.0,-1.89,-13.26,6.04,13.8,0.0,0.0,0.0,-9.42,0.4,2.67
1738246887.2973435,5445,0,0,,0.0,-0.55,0.35,0.64,0.41,-0.45,6.25,-1.93,-15.35,2.68,16.53,0.0,0.0,0.0,-9.68,0.04,1.55
1738246887.3135848,5446,0,0,,0.0,-0.57,0.35,0.62,0.4,0.13,3.76,-1.35,-13.71,7.16,15.12,0.0,0.0,0.0,-9.74,-0.17,1.04
1738246887.3292897,5447,0,0,,0.0,-0.57,0.35,0.62,0.4,-0.51,0.88,-0.96,-6.55,3.3,9.42,0.0,0.0,0.0,-9.75,-0.26,0.96
1738246887.3469803,5448,0,0,,0.0,-0.58,0.34,0.61,0.4,-0.87,0.86,-1.03,-7.92,0.6,10.06,0.0,0.0,0.0,-9.76,-0.48,0.81
1738246887.3637927,5449,0,0,,0.0,-0.59,0.34,0.61,0.41,-0.26,0.2,-1.04,-5.82,2.79,10.27,0.0,0.0,0.0,-9.74,-0.68,0.81
1738246887.3791537,5450,0,0,,0.0,-0.59,0.33,0.61,0.41,-0.15,-0.61,-0.92,-4.56,1.47,8.57,0.0,0.0,0.0,-9.73,-0.76,0.87
1738246887.396883,5451,0,0,,0.0,-0.58,0.32,0.62,0.42,0.03,-0.99,-0.8,-3.7,2.04,6.82,0.0,0.0,0.0,-9.7,-0.9,1.09
1738246887.413747,5452,0,0,,0.0,-0.57,0.32,0.62,0.43,0.12,-1.57,-0.52,-3.39,1.5,5.76,0.0,0.0,0.0,-9.65,-0.98,1.41
1738246887.4289248,5453,0,0,,0.0,-0.57,0.31,0.63,0.43,0.13,-2.01,-0.15,-3.86,1.12,6.05,0.0,0.0,0.0,-9.62,-0.99,1.59
1738246887.4474988,5454,0,0,,0.0,-0.55,0.3,0.64,0.44,0.06,-2.28,0.01,-3.91,0.01,5.99,0.0,0.0,0.0,-9.53,-0.98,2.05
1738246887.4639356,5455,0,0,,0.0,-0.53,0.29,0.66,0.45,0.15,-2.86,0.16,-3.66,-0.89,5.47,0.0,0.0,0.0,-9.4,-0.94,2.6
1738246887.4794152,5456,0,0,,0.0,-0.52,0.28,0.66,0.45,0.35,-3.31,0.13,-4.5,0.0,5.54,0.0,0.0,0.0,-9.32,-0.92,2.9
1738246887.4972138,5457,0,0,,0.0,-0.49,0.27,0.68,0.46,0.38,-3.53,0.16,-4.55,0.19,5.39,0.0,0.0,0.0,-9.09,-0.86,3.55
1738246887.5140684,5458,0,0,,0.0,-0.47,0.26,0.7,0.47,0.39,-3.82,0.36,-5.74,-0.11,5.89,0.0,0.0,0.0,-8.81,-0.76,4.23
1738246887.5294154,5459,0,0,,0.0,-0.45,0.25,0.71,0.48,0.48,-4.08,0.52,-6.7,-1.03,6.25,0.0,0.0,0.0,-8.64,-0.69,4.58
1738246887.5474663,5460,0,0,,0.0,-0.42,0.24,0.73,0.49,0.58,-4.19,0.52,-7.38,-0.83,6.57,0.0,0.0,0.0,-8.24,-0.55,5.28
1738246887.5644348,5461,0,0,,0.0,-0.38,0.23,0.75,0.49,0.6,-4.34,0.61,-8.96,1.48,5.99,0.0,0.0,0.0,-7.77,-0.37,5.95
1738246887.5793924,5462,0,0,,0.0,-0.36,0.22,0.76,0.5,0.57,-4.26,1.07,-10.23,0.89,6.35,0.0,0.0,0.0,-7.52,-0.26,6.27
1738246887.5971794,5463,0,0,,0.0,-0.33,0.21,0.78,0.5,0.58,-4.15,1.3,-10.86,0.45,6.8,0.0,0.0,0.0,-7.01,0.0,6.85
1738246887.6138437,5464,0,0,,0.0,-0.29,0.2,0.8,0.49,0.66,-3.99,1.64,-12.08,-0.77,7.94,0.0,0.0,0.0,-6.45,0.31,7.37
1738246887.629675,5465,0,0,,0.0,-0.27,0.2,0.8,0.49,0.67,-4.01,1.67,-13.56,-0.78,9.13,0.0,0.0,0.0,-6.16,0.46,7.61
1738246887.647125,5466,0,0,,0.0,-0.23,0.18,0.82,0.49,0.55,-4.07,1.58,-13.56,-0.93,8.93,0.0,0.0,0.0,-5.52,0.71,8.07
1738246887.664443,5467,0,0,,0.0,-0.2,0.17,0.84,0.48,0.37,-4.06,1.41,-13.72,-0.51,8.61,0.0,0.0,0.0,-4.85,0.91,8.47
1738246887.6794593,5468,0,0,,0.0,-0.18,0.16,0.84,0.48,0.32,-3.87,1.27,-13.56,-0.22,7.76,0.0,0.0,0.0,-4.52,0.99,8.64
1738246887.6975386,5469,0,0,,0.0,-0.15,0.15,0.85,0.48,0.29,-3.73,1.23,-13.49,-0.17,7.52,0.0,0.0,0.0,-3.88,1.14,8.93
1738246887.714129,5470,0,0,,0.0,-0.12,0.14,0.86,0.47,0.29,-3.38,1.16,-12.46,-1.28,6.29,0.0,0.0,0.0,-3.28,1.27,9.15
1738246887.7293282,5471,0,0,,0.0,-0.1,0.14,0.86,0.47,0.31,-2.85,0.96,-12.12,-2.15,5.98,0.0,0.0,0.0,-3.01,1.33,9.23
1738246887.747657,5472,0,0,,0.0,-0.08,0.13,0.87,0.47,0.31,-2.57,0.83,-11.88,-1.6,5.48,0.0,0.0,0.0,-2.55,1.43,9.35
1738246887.7643507,5473,0,0,,0.0,-0.06,0.12,0.87,0.47,0.24,-2.0,0.67,-10.97,-1.96,3.59,0.0,0.0,0.0,-2.2,1.49,9.43
1738246887.7793968,5474,0,0,,0.0,-0.06,0.12,0.88,0.46,0.12,-1.21,0.45,-10.92,-2.27,2.22,0.0,0.0,0.0,-2.09,1.51,9.46
1738246887.7969804,5475,0,0,,0.0,-0.05,0.12,0.88,0.46,0.1,-0.79,0.32,-11.55,-1.96,2.41,0.0,0.0,0.0,-2.01,1.53,9.47
1738246887.8145947,5476,0,0,,0.0,-0.05,0.12,0.88,0.46,0.12,-0.15,0.11,-12.71,-1.13,3.1,0.0,0.0,0.0,-1.95,1.55,9.48
1738246887.8290367,5477,0,0,,0.0,-0.05,0.12,0.88,0.46,-0.06,0.27,-0.05,-11.46,-0.91,1.8,0.0,0.0,0.0,-1.98,1.55,9.47
1738246887.847037,5478,0,0,,0.0,-0.06,0.12,0.88,0.46,-0.21,0.58,-0.1,-11.66,-0.48,2.08,0.0,0.0,0.0,-2.03,1.53,9.46
1738246887.8644335,5479,0,0,,0.0,-0.07,0.12,0.88,0.46,-0.33,0.93,-0.09,-9.34,0.57,6.28,0.0,0.0,0.0,-2.2,1.46,9.44
1738246887.8796024,5480,0,0,,0.0,-0.07,0.12,0.88,0.46,-0.08,0.82,-0.1,11.34,-0.27,15.0,0.0,0.0,0.0,-2.36,1.43,9.4
1738246887.8972087,5481,0,0,,0.0,-0.09,0.13,0.87,0.47,0.27,1.24,-0.63,0.42,7.37,23.69,0.0,0.0,0.0,-2.67,1.4,9.33
1738246887.9142394,5482,0,0,,0.0,-0.11,0.14,0.87,0.46,-0.28,2.02,-0.15,-7.32,1.03,2.74,0.0,0.0,0.0,-2.85,1.37,9.27
1738246887.9293306,5483,0,0,,0.0,-0.11,0.14,0.87,0.46,0.09,1.59,0.05,-4.07,-2.1,14.27,0.0,0.0,0.0,-3.19,1.36,9.17
1738246887.9469297,5484,0,0,,0.0,-0.12,0.15,0.86,0.46,0.46,1.13,-0.14,-6.73,-0.7,11.98,0.0,0.0,0.0,-3.29,1.4,9.12
1738246887.9644961,5485,0,0,,0.0,-0.12,0.16,0.86,0.46,0.84,0.7,-0.08,-2.45,3.56,9.7,0.0,0.0,0.0,-3.44,1.51,9.05
1738246887.979568,5486,0,0,,0.0,-0.12,0.16,0.86,0.46,0.44,0.62,0.23,-1.58,2.58,6.21,0.0,0.0,0.0,-3.55,1.62,8.99
1738246887.9976385,5487,0,0,,0.0,-0.13,0.17,0.86,0.46,0.42,0.61,0.27,-2.02,2.53,7.21,0.0,0.0,0.0,-3.6,1.67,8.96
1738246888.015431,5488,0,0,,0.0,-0.13,0.17,0.86,0.46,0.28,0.82,0.19,-3.08,2.1,10.06,0.0,0.0,0.0,-3.74,1.73,8.89
1738246888.0298092,5489,0,0,,0.0,-0.13,0.18,0.86,0.46,0.19,0.64,0.14,-4.29,3.15,9.16,0.0,0.0,0.0,-3.85,1.78,8.84
1738246888.047183,5490,0,0,,0.0,-0.14,0.18,0.86,0.46,0.06,0.66,0.03,-4.78,1.74,8.08,0.0,0.0,0.0,-3.9,1.79,8.81
1738246888.065302,5491,0,0,,0.0,-0.14,0.18,0.86,0.46,-0.08,0.59,-0.09,-4.29,2.06,8.74,0.0,0.0,0.0,-4.01,1.78,8.76
1738246888.0795207,5492,0,0,,0.0,-0.15,0.18,0.86,0.46,-0.13,0.56,-0.18,-4.33,2.13,9.06,0.0,0.0,0.0,-4.11,1.75,8.72
1738246888.0973504,5493,0,0,,0.0,-0.15,0.18,0.86,0.46,-0.2,0.56,-0.24,-4.72,1.99,8.45,0.0,0.0,0.0,-4.16,1.72,8.7
1738246888.1149962,5494,0,0,,0.0,-0.16,0.18,0.86,0.46,-0.35,0.49,-0.31,-4.5,1.75,8.91,0.0,0.0,0.0,-4.26,1.64,8.67
1738246888.1302762,5495,0,0,,0.0,-0.16,0.18,0.86,0.46,-0.35,0.42,-0.3,-5.3,1.23,8.88,0.0,0.0,0.0,-4.34,1.56,8.65
1738246888.1475058,5496,0,0,,0.0,-0.17,0.18,0.85,0.46,-0.29,0.35,-0.25,-5.64,1.02,9.19,0.0,0.0,0.0,-4.38,1.52,8.63
1738246888.164992,5497,0,0,,0.0,-0.17,0.18,0.85,0.46,-0.13,0.17,-0.13,-5.43,0.74,9.0,0.0,0.0,0.0,-4.42,1.48,8.62
1738246888.1798825,5498,0,0,,0.0,-0.17,0.18,0.85,0.46,0.0,0.11,-0.01,-5.26,1.07,8.47,0.0,0.0,0.0,-4.44,1.47,8.61
1738246888.1971154,5499,0,0,,0.0,-0.17,0.18,0.85,0.46,0.05,0.09,0.03,-5.22,1.19,8.84,0.0,0.0,0.0,-4.45,1.48,8.61
1738246888.214644,5500,0,0,,0.0,-0.17,0.18,0.85,0.46,0.1,0.03,0.07,-4.29,1.4,8.61,0.0,0.0,0.0,-4.45,1.5,8.6
1738246888.2298398,5501,0,0,,0.0,-0.17,0.18,0.85,0.46,0.11,0.05,0.08,-4.54,1.46,8.17,0.0,0.0,0.0,-4.46,1.52,8.59
1738246888.2475996,5502,0,0,,0.0,-0.17,0.18,0.85,0.46,0.11,0.08,0.09,-4.15,1.85,8.61,0.0,0.0,0.0,-4.46,1.54,8.59
1738246888.2650723,5503,0,0,,0.0,-0.17,0.18,0.85,0.46,0.11,0.07,0.06,-3.8,2.02,8.58,0.0,0.0,0.0,-4.47,1.56,8.58
1738246888.2807148,5504,0,0,,0.0,-0.17,0.19,0.85,0.46,0.11,0.13,0.04,-4.73,1.6,8.21,0.0,0.0,0.0,-4.49,1.58,8.57
1738246888.2977328,5505,0,0,,0.0,-0.17,0.19,0.85,0.46,0.13,0.17,0.04,-4.94,1.85,8.37,0.0,0.0,0.0,-4.5,1.59,8.56
1738246888.3153954,5506,0,0,,0.0,-0.17,0.19,0.85,0.46,0.14,0.14,0.03,-4.34,1.5,8.51,0.0,0.0,0.0,-4.53,1.62,8.54
1738246888.3298798,5507,0,0,,0.0,-0.17,0.19,0.85,0.46,0.15,0.14,0.03,-5.15,1.31,8.46,0.0,0.0,0.0,-4.55,1.65,8.52
1738246888.347621,5508,0,0,,0.0,-0.17,0.19,0.85,0.46,0.13,0.14,0.02,-4.84,1.77,8.68,0.0,0.0,0.0,-4.56,1.66,8.51
1738246888.3659472,5509,0,0,,0.0,-0.17,0.19,0.85,0.46,0.1,0.08,0.04,-4.73,1.55,8.52,0.0,0.0,0.0,-4.57,1.68,8.5
1738246888.3811333,5510,0,0,,0.0,-0.17,0.19,0.85,0.46,0.08,0.08,0.05,-4.82,1.62,8.44,0.0,0.0,0.0,-4.59,1.7,8.49
1738246888.3976257,5511,0,0,,0.0,-0.17,0.19,0.85,0.45,0.08,0.06,0.05,-4.31,1.8,8.74,0.0,0.0,0.0,-4.59,1.71,8.49
1738246888.4148946,5512,0,0,,0.0,-0.17,0.2,0.85,0.45,0.08,0.06,0.05,-5.22,1.61,8.3,0.0,0.0,0.0,-4.6,1.72,8.48
1738246888.429837,5513,0,0,,0.0,-0.17,0.2,0.85,0.45,0.09,0.06,0.05,-4.3,1.9,8.67,0.0,0.0,0.0,-4.61,1.74,8.47
1738246888.4470618,5514,0,0,,0.0,-0.17,0.2,0.85,0.45,0.09,0.04,0.05,-4.3,1.71,8.63,0.0,0.0,0.0,-4.61,1.75,8.47
1738246888.465051,5515,0,0,,0.0,-0.17,0.2,0.85,0.45,0.08,0.04,0.05,-4.55,1.7,8.47,0.0,0.0,0.0,-4.61,1.77,8.46
1738246888.4795814,5516,0,0,,0.0,-0.17,0.2,0.85,0.45,0.07,0.06,0.03,-4.76,1.89,8.47,0.0,0.0,0.0,-4.62,1.79,8.45
1738246888.49695,5517,0,0,,0.0,-0.17,0.2,0.85,0.45,0.06,0.05,0.03,-3.99,2.01,8.83,0.0,0.0,0.0,-4.62,1.79,8.45
1738246888.5141006,5518,0,0,,0.0,-0.17,0.2,0.85,0.45,0.05,0.06,0.01,-4.94,1.84,8.4,0.0,0.0,0.0,-4.63,1.81,8.45
1738246888.5290256,5519,0,0,,0.0,-0.17,0.2,0.85,0.45,0.03,0.07,0.0,-4.95,1.89,8.48,0.0,0.0,0.0,-4.64,1.81,8.44
1738246888.547351,5520,0,0,,0.0,-0.17,0.2,0.85,0.45,0.05,0.04,0.01,-3.88,1.82,8.85,0.0,0.0,0.0,-4.64,1.81,8.44
1738246888.5643656,5521,0,0,,0.0,-0.17,0.2,0.85,0.45,0.04,0.06,0.0,-4.97,1.66,8.32,0.0,0.0,0.0,-4.65,1.82,8.43
1738246888.5797503,5522,0,0,,0.0,-0.17,0.2,0.85,0.45,0.04,0.06,-0.01,-5.03,1.92,8.38,0.0,0.0,0.0,-4.67,1.83,8.42
1738246888.5968657,5523,0,0,,0.0,-0.17,0.2,0.85,0.45,0.05,0.02,-0.0,-4.47,1.92,8.54,0.0,0.0,0.0,-4.67,1.83,8.42
1738246888.613937,5524,0,0,,0.0,-0.17,0.2,0.85,0.45,0.04,0.04,-0.01,-4.94,1.69,8.3,0.0,0.0,0.0,-4.67,1.84,8.41
1738246888.629767,5525,0,0,,0.0,-0.17,0.2,0.85,0.45,0.04,0.06,-0.02,-4.28,1.92,8.6,0.0,0.0,0.0,-4.68,1.84,8.41
1738246888.6477854,5526,0,0,,0.0,-0.17,0.2,0.85,0.45,0.05,0.06,-0.02,-4.43,1.75,8.55,0.0,0.0,0.0,-4.69,1.85,8.41
1738246888.6651182,5527,0,0,,0.0,-0.17,0.2,0.85,0.45,0.06,0.08,-0.03,-4.8,1.83,8.39,0.0,0.0,0.0,-4.7,1.85,8.4
1738246888.680235,5528,0,0,,0.0,-0.17,0.2,0.85,0.45,0.06,0.12,-0.05,-4.43,1.97,8.5,0.0,0.0,0.0,-4.72,1.86,8.38
1738246888.6978629,5529,0,0,,0.0,-0.17,0.21,0.85,0.45,0.06,0.14,-0.06,-4.75,1.87,8.41,0.0,0.0,0.0,-4.73,1.86,8.38
1738246888.7153585,5530,0,0,,0.0,-0.18,0.21,0.85,0.45,0.06,0.2,-0.1,-4.42,1.93,8.35,0.0,0.0,0.0,-4.76,1.86,8.36
1738246888.7297018,5531,0,0,,0.0,-0.18,0.21,0.85,0.45,0.06,0.3,-0.14,-4.28,2.05,8.59,0.0,0.0,0.0,-4.81,1.86,8.33
1738246888.7474923,5532,0,0,,0.0,-0.18,0.21,0.85,0.46,0.07,0.35,-0.14,-4.58,1.87,8.34,0.0,0.0,0.0,-4.84,1.86,8.31
1738246888.765191,5533,0,0,,0.0,-0.18,0.21,0.85,0.46,0.08,0.5,-0.15,-4.49,1.65,8.3,0.0,0.0,0.0,-4.92,1.86,8.27
1738246888.7801554,5534,0,0,,0.0,-0.19,0.21,0.84,0.46,0.1,0.69,-0.18,-3.15,1.3,7.61,0.0,0.0,0.0,-5.03,1.86,8.2
1738246888.7972884,5535,0,0,,0.0,-0.19,0.22,0.84,0.46,0.11,0.86,-0.2,-5.88,2.26,10.68,0.0,0.0,0.0,-5.1,1.86,8.16
1738246888.8142397,5536,0,0,,0.0,-0.2,0.22,0.84,0.46,0.13,1.02,-0.17,-3.85,1.89,7.37,0.0,0.0,0.0,-5.27,1.86,8.05
1738246888.8298514,5537,0,0,,0.0,-0.21,0.23,0.83,0.46,0.13,1.48,-0.33,-6.25,1.84,8.85,0.0,0.0,0.0,-5.48,1.85,7.91
1738246888.8473098,5538,0,0,,0.0,-0.22,0.23,0.83,0.45,0.11,1.6,-0.34,-5.05,1.81,7.27,0.0,0.0,0.0,-5.61,1.84,7.82
1738246888.8658917,5539,0,0,,0.0,-0.23,0.24,0.83,0.45,0.08,1.98,-0.38,-6.45,2.23,7.68,0.0,0.0,0.0,-5.9,1.81,7.61
1738246888.8801568,5540,0,0,,0.0,-0.25,0.25,0.82,0.45,0.04,2.33,-0.46,-4.22,2.22,8.08,0.0,0.0,0.0,-6.24,1.77,7.34
1738246888.8978026,5541,0,0,,0.0,-0.26,0.25,0.81,0.45,-0.02,2.6,-0.53,-6.25,2.18,7.82,0.0,0.0,0.0,-6.43,1.73,7.18
1738246888.9149961,5542,0,0,,0.0,-0.29,0.26,0.8,0.45,-0.09,3.02,-0.7,-5.98,1.88,7.11,0.0,0.0,0.0,-6.85,1.64,6.81
1738246888.9299307,5543,0,0,,0.0,-0.32,0.28,0.79,0.45,-0.11,3.44,-0.83,-5.71,2.22,7.36,0.0,0.0,0.0,-7.3,1.51,6.36
1738246888.9472797,5544,0,0,,0.0,-0.33,0.28,0.78,0.44,-0.14,3.7,-0.89,-6.19,2.14,7.24,0.0,0.0,0.0,-7.54,1.44,6.09
1738246888.9652174,5545,0,0,,0.0,-0.37,0.29,0.77,0.44,-0.39,4.47,-1.05,-6.91,1.44,8.73,0.0,0.0,0.0,-8.04,1.25,5.46
1738246888.9806442,5546,0,0,,0.0,-0.41,0.31,0.74,0.43,0.47,6.02,-1.06,-12.02,6.35,14.99,0.0,0.0,0.0,-8.6,1.09,4.57
1738246888.9980521,5547,0,0,,0.0,-0.43,0.33,0.72,0.42,0.14,6.45,-1.05,-13.27,2.38,12.81,0.0,0.0,0.0,-8.88,1.0,4.02
1738246889.0155337,5548,0,0,,0.0,-0.49,0.34,0.69,0.41,-0.25,6.57,-1.59,-16.68,5.66,17.03,0.0,0.0,0.0,-9.35,0.72,2.86
1738246889.0311356,5549,0,0,,0.0,-0.53,0.36,0.65,0.4,-0.01,5.63,-1.49,-16.64,1.42,15.76,0.0,0.0,0.0,-9.64,0.44,1.73
1738246889.0483446,5550,0,0,,0.0,-0.54,0.36,0.64,0.4,-0.05,3.3,-1.4,-15.46,4.33,12.94,0.0,0.0,0.0,-9.69,0.31,1.42
1738246889.0661685,5551,0,0,,0.0,-0.56,0.36,0.63,0.4,-0.14,1.06,-1.7,-7.24,5.92,9.54,0.0,0.0,0.0,-9.73,-0.01,1.16
1738246889.0821085,5552,0,0,,0.0,-0.57,0.35,0.62,0.41,-0.49,0.85,-1.39,-6.28,5.49,10.86,0.0,0.0,0.0,-9.75,-0.3,0.97
1738246889.0994067,5553,0,0,,0.0,-0.58,0.34,0.62,0.41,-0.49,0.47,-0.99,-4.95,3.19,8.85,0.0,0.0,0.0,-9.75,-0.4,0.92
1738246889.1169758,5554,0,0,,0.0,-0.58,0.34,0.62,0.41,-0.45,-0.25,-0.6,-3.79,1.66,7.81,0.0,0.0,0.0,-9.74,-0.53,0.93
1738246889.1331024,5555,0,0,,0.0,-0.58,0.33,0.62,0.41,-0.33,-1.01,-0.54,-3.07,1.6,7.03,0.0,0.0,0.0,-9.72,-0.64,1.08
1738246889.1498475,5556,0,0,,0.0,-0.57,0.32,0.63,0.42,-0.29,-1.4,-0.49,-2.78,1.89,6.7,0.0,0.0,0.0,-9.68,-0.73,1.37
1738246889.1676815,5557,0,0,,0.0,-0.56,0.31,0.64,0.43,-0.23,-2.08,-0.3,-2.15,1.21,5.39,0.0,0.0,0.0,-9.64,-0.76,1.57
1738246889.1849654,5558,0,0,,0.0,-0.55,0.3,0.65,0.43,-0.02,-2.62,-0.12,-2.4,0.74,5.07,0.0,0.0,0.0,-9.56,-0.79,2.03
1738246889.2005978,5559,0,0,,0.0,-0.53,0.29,0.66,0.44,0.1,-2.87,-0.04,-3.22,0.7,5.24,0.0,0.0,0.0,-9.42,-0.79,2.58
1738246889.2182703,5560,0,0,,0.0,-0.51,0.28,0.68,0.45,0.3,-3.4,0.06,-3.88,1.27,5.16,0.0,0.0,0.0,-9.33,-0.77,2.9
1738246889.2350435,5561,0,0,,0.0,-0.49,0.27,0.69,0.46,0.42,-3.84,0.29,-4.39,1.02,4.92,0.0,0.0,0.0,-9.1,-0.71,3.57
1738246889.250266,5562,0,0,,0.0,-0.46,0.26,0.71,0.47,0.48,-3.96,0.43,-6.38,0.11,5.69,0.0,0.0,0.0,-8.8,-0.58,4.27
1738246889.2681694,5563,0,0,,0.0,-0.43,0.25,0.73,0.47,0.61,-4.2,0.65,-6.97,0.26,5.66,0.0,0.0,0.0,-8.62,-0.5,4.63
1738246889.285672,5564,0,0,,0.0,-0.41,0.24,0.74,0.48,0.61,-4.35,0.8,-8.5,1.49,5.95,0.0,0.0,0.0,-8.21,-0.32,5.34
1738246889.3010883,5565,0,0,,0.0,-0.37,0.23,0.76,0.48,0.6,-4.38,1.19,-9.48,1.1,6.54,0.0,0.0,0.0,-7.73,-0.09,6.02
1738246889.3185909,5566,0,0,,0.0,-0.34,0.22,0.78,0.48,0.59,-4.37,1.38,-10.13,0.52,6.92,0.0,0.0,0.0,-7.47,0.04,6.34
1738246889.3362718,5567,0,0,,0.0,-0.32,0.21,0.79,0.48,0.57,-4.38,1.55,-11.97,-0.67,8.77,0.0,0.0,0.0,-6.9,0.33,6.95
1738246889.3518274,5568,0,0,,0.0,-0.27,0.2,0.81,0.48,0.64,-4.48,1.62,-12.18,-1.13,8.8,0.0,0.0,0.0,-6.26,0.62,7.51
1738246889.3690372,5569,0,0,,0.0,-0.23,0.19,0.82,0.48,0.62,-4.44,1.58,-12.61,-2.05,8.87,0.0,0.0,0.0,-5.58,0.89,8.01
1738246889.3868575,5570,0,0,,0.0,-0.21,0.19,0.83,0.48,0.62,-4.2,1.38,-14.84,-0.66,10.27,0.0,0.0,0.0,-5.24,1.01,8.22
1738246889.4020014,5571,0,0,,0.0,-0.18,0.17,0.84,0.48,0.46,-3.97,1.19,-15.23,0.22,7.89,0.0,0.0,0.0,-4.55,1.21,8.59
1738246889.4194908,5572,0,0,,0.0,-0.15,0.16,0.85,0.47,0.35,-3.65,1.09,-15.61,0.82,7.99,0.0,0.0,0.0,-3.92,1.35,8.88
1738246889.4377291,5573,0,0,,0.0,-0.13,0.15,0.86,0.47,0.1,-3.23,1.01,-15.33,-0.23,7.13,0.0,0.0,0.0,-3.63,1.39,9.0
1738246889.453842,5574,0,0,,0.0,-0.11,0.14,0.87,0.47,-0.01,-2.82,0.93,-13.5,-1.9,5.68,0.0,0.0,0.0,-3.09,1.46,9.19
1738246889.4704726,5575,0,0,,0.0,-0.08,0.13,0.87,0.46,-0.05,-2.6,0.82,-12.65,-2.35,5.1,0.0,0.0,0.0,-2.63,1.49,9.32
1738246889.4878411,5576,0,0,,0.0,-0.08,0.13,0.87,0.46,-0.11,-2.02,0.48,-10.95,-2.0,3.11,0.0,0.0,0.0,-2.44,1.49,9.37
1738246889.5043597,5577,0,0,,0.0,-0.06,0.12,0.88,0.46,-0.19,-1.27,0.15,-9.98,-1.18,2.0,0.0,0.0,0.0,-2.16,1.47,9.45
1738246889.520698,5578,0,0,,0.0,-0.06,0.11,0.88,0.46,-0.24,-0.82,0.04,-9.12,-0.89,0.82,0.0,0.0,0.0,-2.05,1.42,9.48
1738246889.5378702,5579,0,0,,0.0,-0.06,0.11,0.88,0.46,-0.27,0.12,-0.08,-9.21,-0.94,1.0,0.0,0.0,0.0,-2.06,1.4,9.48
1738246889.553982,5580,0,0,,0.0,-0.07,0.11,0.88,0.46,-0.21,0.96,-0.05,-11.23,-0.93,3.56,0.0,0.0,0.0,-2.21,1.35,9.45
1738246889.570588,5581,0,0,,0.0,-0.08,0.12,0.88,0.46,-0.19,1.11,0.0,-11.43,-0.73,5.05,0.0,0.0,0.0,-2.41,1.31,9.41
1738246889.587861,5582,0,0,,0.0,-0.08,0.12,0.88,0.46,-0.4,1.1,-0.0,-10.14,-0.44,4.84,0.0,0.0,0.0,-2.51,1.27,9.39
1738246889.6037366,5583,0,0,,0.0,-0.1,0.12,0.87,0.46,-0.53,1.07,-0.09,-5.77,1.53,8.36,0.0,0.0,0.0,-2.71,1.17,9.34
1738246889.6203601,5584,0,0,,0.0,-0.11,0.12,0.87,0.46,-0.39,1.0,-0.02,1.9,1.69,10.28,0.0,0.0,0.0,-2.89,1.11,9.3
1738246889.6380594,5585,0,0,,0.0,-0.11,0.12,0.87,0.46,-0.06,1.73,-0.52,-6.35,5.75,17.38,0.0,0.0,0.0,-3.05,1.09,9.25
1738246889.6541142,5586,0,0,,0.0,-0.13,0.13,0.87,0.46,-0.15,2.36,0.08,-10.11,-3.72,3.05,0.0,0.0,0.0,-3.46,1.05,9.11
1738246889.6704469,5587,0,0,,0.0,-0.15,0.14,0.87,0.45,-0.02,2.15,0.18,-14.37,-0.17,4.91,0.0,0.0,0.0,-3.79,1.08,8.97
1738246889.6882253,5588,0,0,,0.0,-0.16,0.14,0.87,0.45,-0.27,1.36,-0.11,-8.5,-2.48,12.04,0.0,0.0,0.0,-3.91,1.06,8.92
1738246889.7041802,5589,0,0,,0.0,-0.16,0.15,0.86,0.45,0.31,0.74,-0.0,-4.23,1.98,9.84,0.0,0.0,0.0,-4.05,1.08,8.86
1738246889.7206168,5590,0,0,,0.0,-0.16,0.15,0.86,0.45,0.2,0.7,0.12,-5.6,0.06,9.53,0.0,0.0,0.0,-4.14,1.13,8.81
1738246889.7379506,5591,0,0,,0.0,-0.17,0.16,0.86,0.45,0.32,0.31,0.14,-4.03,1.49,9.05,0.0,0.0,0.0,-4.17,1.16,8.79
1738246889.7531736,5592,0,0,,0.0,-0.17,0.16,0.86,0.45,0.33,0.41,0.11,-3.95,1.49,9.5,0.0,0.0,0.0,-4.23,1.23,8.75
1738246889.7704308,5593,0,0,,0.0,-0.17,0.16,0.86,0.45,0.33,0.34,0.07,-3.56,2.73,9.53,0.0,0.0,0.0,-4.29,1.28,8.72
1738246889.7874033,5594,0,0,,0.0,-0.17,0.17,0.86,0.45,0.15,0.39,-0.03,-4.35,1.19,8.26,0.0,0.0,0.0,-4.32,1.29,8.7
1738246889.8033164,5595,0,0,,0.0,-0.17,0.17,0.86,0.45,0.15,0.39,-0.05,-5.0,1.26,9.01,0.0,0.0,0.0,-4.39,1.31,8.66
1738246889.8208563,5596,0,0,,0.0,-0.17,0.17,0.86,0.45,0.22,0.28,-0.0,-3.99,1.05,8.96,0.0,0.0,0.0,-4.44,1.35,8.63
1738246889.8375604,5597,0,0,,0.0,-0.17,0.17,0.86,0.45,0.26,0.28,0.04,-4.77,0.92,8.29,0.0,0.0,0.0,-4.46,1.37,8.62
1738246889.853648,5598,0,0,,0.0,-0.18,0.18,0.86,0.45,0.22,0.3,0.03,-4.9,2.31,8.94,0.0,0.0,0.0,-4.51,1.41,8.58
1738246889.8718717,5599,0,0,,0.0,-0.18,0.18,0.86,0.45,0.16,0.24,0.01,-4.59,1.76,9.03,0.0,0.0,0.0,-4.55,1.44,8.56
1738246889.8877416,5600,0,0,,0.0,-0.18,0.18,0.86,0.45,0.09,0.2,-0.01,-5.35,1.42,8.45,0.0,0.0,0.0,-4.57,1.45,8.55
1738246889.9035008,5601,0,0,,0.0,-0.18,0.18,0.86,0.45,0.04,0.15,-0.01,-4.63,1.56,8.96,0.0,0.0,0.0,-4.59,1.45,8.53
1738246889.9207811,5602,0,0,,0.0,-0.18,0.18,0.86,0.45,0.03,0.11,-0.0,-4.7,1.22,8.9,0.0,0.0,0.0,-4.61,1.46,8.52
1738246889.9381301,5603,0,0,,0.0,-0.18,0.18,0.86,0.45,0.07,0.09,0.04,-5.04,0.9,8.63,0.0,0.0,0.0,-4.62,1.47,8.52
1738246889.9529865,5604,0,0,,0.0,-0.18,0.18,0.86,0.45,0.1,0.06,0.07,-4.43,1.42,8.79,0.0,0.0,0.0,-4.63,1.49,8.51
1738246889.9707196,5605,0,0,,0.0,-0.18,0.18,0.86,0.45,0.12,0.03,0.08,-4.65,1.35,8.57,0.0,0.0,0.0,-4.63,1.52,8.5
1738246889.987785,5606,0,0,,0.0,-0.18,0.19,0.86,0.45,0.15,0.02,0.09,-5.03,1.42,8.07,0.0,0.0,0.0,-4.63,1.53,8.5
1738246890.0026765,5607,0,0,,0.0,-0.18,0.19,0.86,0.45,0.16,0.01,0.1,-3.79,1.65,8.61,0.0,0.0,0.0,-4.63,1.57,8.49
1738246890.0198042,5608,0,0,,0.0,-0.18,0.19,0.86,0.45,0.16,0.01,0.1,-4.43,1.7,8.37,0.0,0.0,0.0,-4.63,1.59,8.49
1738246890.0378149,5609,0,0,,0.0,-0.18,0.19,0.86,0.44,0.16,0.05,0.09,-5.01,1.7,8.17,0.0,0.0,0.0,-4.63,1.62,8.48
1738246890.052443,5610,0,0,,0.0,-0.18,0.19,0.86,0.44,0.18,0.02,0.07,-4.21,1.82,8.67,0.0,0.0,0.0,-4.64,1.66,8.47
1738246890.0705307,5611,0,0,,0.0,-0.18,0.19,0.86,0.44,0.17,0.01,0.07,-4.69,1.67,8.36,0.0,0.0,0.0,-4.64,1.67,8.47
1738246890.088234,5612,0,0,,0.0,-0.18,0.19,0.86,0.44,0.16,0.03,0.06,-4.94,1.5,8.26,0.0,0.0,0.0,-4.65,1.7,8.46
1738246890.1028378,5613,0,0,,0.0,-0.18,0.19,0.86,0.44,0.17,-0.02,0.07,-4.32,1.55,8.65,0.0,0.0,0.0,-4.64,1.74,8.45
1738246890.1201317,5614,0,0,,0.0,-0.18,0.2,0.86,0.44,0.17,0.0,0.08,-4.62,1.8,8.48,0.0,0.0,0.0,-4.64,1.75,8.45
1738246890.137373,5615,0,0,,0.0,-0.17,0.2,0.86,0.44,0.16,0.01,0.07,-5.56,1.76,8.16,0.0,0.0,0.0,-4.65,1.79,8.44
1738246890.1528533,5616,0,0,,0.0,-0.17,0.2,0.86,0.44,0.13,-0.01,0.06,-4.11,1.91,8.59,0.0,0.0,0.0,-4.65,1.81,8.43
1738246890.1705558,5617,0,0,,0.0,-0.17,0.2,0.86,0.44,0.12,0.01,0.05,-4.89,2.15,8.33,0.0,0.0,0.0,-4.65,1.83,8.43
1738246890.187629,5618,0,0,,0.0,-0.17,0.2,0.86,0.44,0.1,0.03,0.03,-5.44,2.01,8.32,0.0,0.0,0.0,-4.65,1.85,8.42
1738246890.2027729,5619,0,0,,0.0,-0.17,0.2,0.86,0.44,0.09,0.02,0.03,-5.06,1.61,8.36,0.0,0.0,0.0,-4.66,1.86,8.42
1738246890.2204297,5620,0,0,,0.0,-0.17,0.2,0.86,0.44,0.09,0.04,0.03,-4.62,1.79,8.47,0.0,0.0,0.0,-4.66,1.87,8.41
1738246890.2375388,5621,0,0,,0.0,-0.17,0.2,0.86,0.44,0.07,0.06,0.03,-5.04,1.89,8.42,0.0,0.0,0.0,-4.67,1.89,8.41
1738246890.2527337,5622,0,0,,0.0,-0.17,0.2,0.86,0.44,0.07,0.07,0.02,-4.47,2.1,8.41,0.0,0.0,0.0,-4.68,1.9,8.4
1738246890.2703557,5623,0,0,,0.0,-0.17,0.2,0.86,0.44,0.06,0.06,0.01,-5.03,1.81,8.19,0.0,0.0,0.0,-4.68,1.91,8.39
1738246890.2879102,5624,0,0,,0.0,-0.17,0.2,0.86,0.44,0.05,0.07,-0.01,-5.13,1.91,8.28,0.0,0.0,0.0,-4.69,1.92,8.39
1738246890.3033326,5625,0,0,,0.0,-0.17,0.21,0.86,0.44,0.04,0.05,-0.01,-4.19,1.98,8.46,0.0,0.0,0.0,-4.7,1.92,8.38
1738246890.3201065,5626,0,0,,0.0,-0.17,0.21,0.86,0.44,0.04,0.06,-0.02,-5.08,1.74,8.29,0.0,0.0,0.0,-4.71,1.93,8.38
1738246890.3381336,5627,0,0,,0.0,-0.18,0.21,0.86,0.44,0.04,0.08,-0.03,-4.35,2.1,8.45,0.0,0.0,0.0,-4.72,1.93,8.37
1738246890.3528721,5628,0,0,,0.0,-0.18,0.21,0.85,0.44,0.04,0.06,-0.03,-4.43,2.0,8.47,0.0,0.0,0.0,-4.73,1.93,8.36
1738246890.3707073,5629,0,0,,0.0,-0.18,0.21,0.85,0.44,0.04,0.06,-0.04,-4.77,1.87,8.46,0.0,0.0,0.0,-4.73,1.93,8.36
1738246890.3877356,5630,0,0,,0.0,-0.18,0.21,0.85,0.44,0.03,0.09,-0.06,-4.87,2.13,8.26,0.0,0.0,0.0,-4.75,1.93,8.35
1738246890.4032817,5631,0,0,,0.0,-0.18,0.21,0.85,0.44,0.04,0.07,-0.07,-4.64,1.96,8.4,0.0,0.0,0.0,-4.76,1.93,8.34
1738246890.4208279,5632,0,0,,0.0,-0.18,0.21,0.85,0.44,0.04,0.09,-0.08,-4.44,1.88,8.41,0.0,0.0,0.0,-4.77,1.93,8.34
1738246890.438086,5633,0,0,,0.0,-0.18,0.21,0.85,0.44,0.04,0.15,-0.1,-4.91,2.04,8.35,0.0,0.0,0.0,-4.8,1.93,8.32
1738246890.4533358,5634,0,0,,0.0,-0.18,0.21,0.85,0.44,0.05,0.16,-0.12,-4.34,1.89,8.62,0.0,0.0,0.0,-4.83,1.93,8.31
1738246890.4706917,5635,0,0,,0.0,-0.18,0.21,0.85,0.45,0.06,0.24,-0.13,-4.8,1.7,8.33,0.0,0.0,0.0,-4.85,1.93,8.29
1738246890.487976,5636,0,0,,0.0,-0.18,0.21,0.85,0.45,0.06,0.35,-0.15,-4.07,1.74,8.61,0.0,0.0,0.0,-4.91,1.92,8.26
1738246890.5035763,5637,0,0,,0.0,-0.19,0.21,0.85,0.45,0.07,0.39,-0.15,-4.66,1.7,8.39,0.0,0.0,0.0,-4.98,1.92,8.22
1738246890.5216172,5638,0,0,,0.0,-0.19,0.22,0.85,0.45,0.1,0.53,-0.13,-5.47,1.62,8.23,0.0,0.0,0.0,-5.03,1.92,8.19
1738246890.537974,5639,0,0,,0.0,-0.19,0.22,0.85,0.45,0.13,0.69,-0.13,-3.99,2.04,8.69,0.0,0.0,0.0,-5.14,1.93,8.12
1738246890.553139,5640,0,0,,0.0,-0.2,0.22,0.84,0.45,0.14,0.76,-0.12,-4.76,1.79,8.16,0.0,0.0,0.0,-5.27,1.94,8.03
1738246890.570696,5641,0,0,,0.0,-0.21,0.23,0.84,0.45,0.16,0.96,-0.16,-4.57,1.75,7.35,0.0,0.0,0.0,-5.34,1.94,7.98
1738246890.58844,5642,0,0,,0.0,-0.21,0.23,0.84,0.45,0.16,1.24,-0.23,-5.0,2.38,9.74,0.0,0.0,0.0,-5.53,1.94,7.85
1738246890.6032345,5643,0,0,,0.0,-0.22,0.24,0.83,0.44,0.15,1.34,-0.23,-4.21,1.73,7.17,0.0,0.0,0.0,-5.74,1.94,7.7
1738246890.6212363,5644,0,0,,0.0,-0.24,0.25,0.83,0.44,0.13,1.56,-0.3,-5.76,2.37,7.76,0.0,0.0,0.0,-5.86,1.93,7.61
1738246890.6384907,5645,0,0,,0.0,-0.25,0.25,0.83,0.44,0.04,1.91,-0.45,-6.17,1.96,6.85,0.0,0.0,0.0,-6.15,1.89,7.39
1738246890.6533508,5646,0,0,,0.0,-0.26,0.26,0.82,0.44,0.03,2.02,-0.46,-6.98,2.24,7.5,0.0,0.0,0.0,-6.46,1.83,7.13
1738246890.6710775,5647,0,0,,0.0,-0.28,0.27,0.81,0.44,-0.07,2.31,-0.48,-5.49,1.89,7.18,0.0,0.0,0.0,-6.63,1.8,6.99
1738246890.6890285,5648,0,0,,0.0,-0.3,0.27,0.81,0.44,-0.06,2.57,-0.52,-6.76,1.59,7.0,0.0,0.0,0.0,-6.98,1.72,6.66
1738246890.7037766,5649,0,0,,0.0,-0.32,0.28,0.8,0.43,-0.0,2.62,-0.51,-6.67,1.38,6.65,0.0,0.0,0.0,-7.33,1.65,6.29
1738246890.7219982,5650,0,0,,0.0,-0.34,0.29,0.78,0.43,0.03,2.83,-0.52,-6.47,1.81,6.29,0.0,0.0,0.0,-7.51,1.62,6.09
1738246890.738826,5651,0,0,,0.0,-0.35,0.3,0.78,0.43,-0.03,3.14,-0.61,-6.84,2.21,6.8,0.0,0.0,0.0,-7.87,1.53,5.63
1738246890.7538784,5652,0,0,,0.0,-0.38,0.31,0.76,0.42,-0.09,3.37,-0.71,-8.33,2.34,8.41,0.0,0.0,0.0,-8.26,1.4,5.09
1738246890.7720213,5653,0,0,,0.0,-0.42,0.32,0.74,0.42,-0.36,4.08,-0.96,-9.6,1.05,8.33,0.0,0.0,0.0,-8.46,1.3,4.76
1738246890.7889316,5654,0,0,,0.0,-0.44,0.33,0.73,0.41,-0.19,5.19,-1.03,-10.46,2.53,10.95,0.0,0.0,0.0,-8.9,1.1,3.94
1738246890.8041453,5655,0,0,,0.0,-0.48,0.34,0.7,0.4,-0.08,5.56,-1.07,-12.83,5.63,12.08,0.0,0.0,0.0,-9.31,0.88,2.94
1738246890.8228772,5656,0,0,,0.0,-0.53,0.36,0.66,0.39,-0.06,6.13,-1.61,-15.41,6.88,13.83,0.0,0.0,0.0,-9.48,0.74,2.38
1738246890.8393283,5657,0,0,,0.0,-0.55,0.36,0.64,0.39,0.12,5.81,-1.61,-19.74,8.03,14.62,0.0,0.0,0.0,-9.71,0.43,1.25
1738246890.854877,5658,0,0,,0.0,-0.57,0.36,0.63,0.38,-0.42,1.21,-1.31,-9.02,4.76,14.53,0.0,0.0,0.0,-9.77,0.18,0.81
1738246890.8735247,5659,0,0,,0.0,-0.58,0.35,0.62,0.39,-1.0,0.52,-1.4,-8.23,2.58,9.05,0.0,0.0,0.0,-9.77,0.04,0.76
1738246890.889906,5660,0,0,,0.0,-0.59,0.35,0.62,0.39,-0.69,0.39,-1.64,-6.62,3.0,9.63,0.0,0.0,0.0,-9.77,-0.27,0.67
1738246890.9044886,5661,0,0,,0.0,-0.59,0.34,0.61,0.39,-0.35,-0.08,-1.39,-6.05,2.77,8.41,0.0,0.0,0.0,-9.76,-0.54,0.66
1738246890.9233358,5662,0,0,,0.0,-0.6,0.33,0.61,0.4,-0.28,-0.37,-1.24,-4.51,1.69,6.46,0.0,0.0,0.0,-9.75,-0.66,0.69
1738246890.939585,5663,0,0,,0.0,-0.59,0.32,0.61,0.41,0.13,-0.91,-0.93,-3.08,2.35,5.02,0.0,0.0,0.0,-9.73,-0.85,0.84
1738246890.954733,5664,0,0,,0.0,-0.59,0.31,0.62,0.42,0.19,-1.35,-0.62,-2.93,3.0,4.89,0.0,0.0,0.0,-9.69,-0.98,1.08
1738246890.9734173,5665,0,0,,0.0,-0.58,0.31,0.63,0.42,0.18,-1.59,-0.36,-2.84,2.6,4.82,0.0,0.0,0.0,-9.67,-1.01,1.23
1738246890.989667,5666,0,0,,0.0,-0.57,0.3,0.63,0.43,0.18,-2.11,0.2,-2.71,-0.45,4.39,0.0,0.0,0.0,-9.62,-1.0,1.6
1738246891.005465,5667,0,0,,0.0,-0.55,0.3,0.65,0.43,0.34,-2.59,0.44,-3.57,-1.52,5.35,0.0,0.0,0.0,-9.54,-0.91,2.07
1738246891.0240822,5668,0,0,,0.0,-0.53,0.29,0.66,0.44,0.41,-2.84,0.42,-3.89,-1.83,5.53,0.0,0.0,0.0,-9.48,-0.86,2.33
1738246891.040314,5669,0,0,,0.0,-0.52,0.28,0.67,0.45,0.45,-3.36,0.25,-4.32,-1.34,5.66,0.0,0.0,0.0,-9.32,-0.78,2.93
1738246891.0557182,5670,0,0,,0.0,-0.49,0.27,0.69,0.46,0.49,-3.81,0.26,-4.8,-1.11,5.62,0.0,0.0,0.0,-9.09,-0.71,3.59
1738246891.07425,5671,0,0,,0.0,-0.46,0.26,0.71,0.47,0.54,-3.96,0.27,-5.47,-1.04,5.73,0.0,0.0,0.0,-8.95,-0.67,3.94
1738246891.090226,5672,0,0,,0.0,-0.45,0.25,0.72,0.47,0.63,-4.24,0.32,-6.64,-0.56,6.24,0.0,0.0,0.0,-8.6,-0.56,4.66
1738246891.1053925,5673,0,0,,0.0,-0.41,0.24,0.74,0.48,0.59,-4.41,0.42,-7.75,1.58,5.89,0.0,0.0,0.0,-8.18,-0.44,5.38
1738246891.124564,5674,0,0,,0.0,-0.37,0.22,0.75,0.49,0.56,-4.43,0.65,-8.29,1.88,6.07,0.0,0.0,0.0,-7.94,-0.36,5.73
1738246891.1401439,5675,0,0,,0.0,-0.36,0.22,0.76,0.49,0.52,-4.31,1.26,-9.23,0.56,6.24,0.0,0.0,0.0,-7.44,-0.14,6.38
1738246891.1554694,5676,0,0,,0.0,-0.32,0.21,0.78,0.49,0.68,-4.09,1.63,-12.45,-1.72,9.3,0.0,0.0,0.0,-6.9,0.15,6.95
1738246891.174323,5677,0,0,,0.0,-0.28,0.2,0.8,0.49,0.74,-4.09,1.64,-13.14,-2.1,9.67,0.0,0.0,0.0,-6.62,0.31,7.22
1738246891.19027,5678,0,0,,0.0,-0.26,0.19,0.81,0.49,0.64,-4.3,1.29,-13.71,-1.43,9.57,0.0,0.0,0.0,-5.99,0.58,7.73
1738246891.2057781,5679,0,0,,0.0,-0.22,0.18,0.82,0.49,0.55,-4.31,1.04,-13.26,-1.01,8.33,0.0,0.0,0.0,-5.31,0.79,8.2
1738246891.2250502,5680,0,0,,0.0,-0.19,0.17,0.84,0.49,0.53,-4.15,0.97,-13.94,-0.42,8.65,0.0,0.0,0.0,-4.97,0.88,8.4
1738246891.240397,5681,0,0,,0.0,-0.17,0.16,0.84,0.49,0.4,-3.82,0.94,-14.01,1.21,7.87,0.0,0.0,0.0,-4.31,1.03,8.74
1738246891.2554545,5682,0,0,,0.0,-0.14,0.15,0.85,0.49,0.28,-3.65,0.99,-12.74,-0.04,5.41,0.0,0.0,0.0,-3.68,1.15,9.01
1738246891.2748437,5683,0,0,,0.0,-0.11,0.14,0.86,0.48,0.12,-2.93,0.95,-12.32,-1.4,4.9,0.0,0.0,0.0,-3.42,1.19,9.11
1738246891.290146,5684,0,0,,0.0,-0.1,0.13,0.86,0.48,0.01,-2.07,0.64,-12.72,-1.72,5.87,0.0,0.0,0.0,-3.0,1.25,9.25
1738246891.3052163,5685,0,0,,0.0,-0.09,0.12,0.86,0.48,-0.03,-1.77,0.51,-10.81,-1.97,3.41,0.0,0.0,0.0,-2.69,1.27,9.34
1738246891.3254697,5686,0,0,,0.0,-0.08,0.12,0.87,0.48,0.01,-1.17,0.4,-10.43,-2.31,2.72,0.0,0.0,0.0,-2.58,1.28,9.37
1738246891.3406508,5687,0,0,,0.0,-0.08,0.12,0.87,0.48,0.06,-0.36,0.12,-13.74,-2.89,4.93,0.0,0.0,0.0,-2.47,1.3,9.39
1738246891.3563814,5688,0,0,,0.0,-0.08,0.12,0.87,0.48,0.31,-0.07,-0.04,-12.27,-2.08,2.44,0.0,0.0,0.0,-2.45,1.34,9.39
1738246891.3754172,5689,0,0,,0.0,-0.08,0.12,0.87,0.48,0.22,0.07,-0.19,-12.1,-2.15,1.72,0.0,0.0,0.0,-2.46,1.36,9.39
1738246891.3909183,5690,0,0,,0.0,-0.08,0.12,0.86,0.48,-0.07,0.56,-0.38,-11.67,-0.69,0.76,0.0,0.0,0.0,-2.55,1.34,9.37
1738246891.4062805,5691,0,0,,0.0,-0.09,0.13,0.86,0.48,-0.26,0.92,-0.24,-9.66,-0.86,6.61,0.0,0.0,0.0,-2.72,1.28,9.33
1738246891.4254513,5692,0,0,,0.0,-0.1,0.13,0.86,0.48,0.02,0.76,-0.15,15.11,3.21,19.64,0.0,0.0,0.0,-2.79,1.28,9.31
1738246891.4414015,5693,0,0,,0.0,-0.11,0.14,0.86,0.48,-0.0,2.01,-0.79,-7.62,2.81,11.96,0.0,0.0,0.0,-3.08,1.29,9.21
1738246891.4562213,5694,0,0,,0.0,-0.13,0.15,0.85,0.48,-0.05,2.27,-0.25,-11.23,-0.67,9.54,0.0,0.0,0.0,-3.49,1.23,9.07
1738246891.4753256,5695,0,0,,0.0,-0.14,0.15,0.85,0.48,0.33,1.7,-0.09,-5.76,0.12,12.84,0.0,0.0,0.0,-3.64,1.26,9.01
1738246891.4908211,5696,0,0,,0.0,-0.14,0.16,0.85,0.48,0.32,0.97,-0.1,-5.67,3.38,10.43,0.0,0.0,0.0,-3.83,1.3,8.92
1738246891.505699,5697,0,0,,0.0,-0.15,0.16,0.85,0.48,0.45,0.83,0.09,-7.75,1.57,11.12,0.0,0.0,0.0,-3.97,1.37,8.85
1738246891.5245757,5698,0,0,,0.0,-0.15,0.17,0.85,0.48,0.15,0.57,0.17,-4.61,1.5,8.5,0.0,0.0,0.0,-4.01,1.39,8.83
1738246891.5403404,5699,0,0,,0.0,-0.15,0.17,0.85,0.48,0.08,0.42,0.07,-4.83,0.39,8.07,0.0,0.0,0.0,-4.08,1.42,8.8
1738246891.5551577,5700,0,0,,0.0,-0.15,0.17,0.85,0.48,0.06,0.42,0.07,-4.4,1.78,9.16,0.0,0.0,0.0,-4.14,1.44,8.76
1738246891.5749187,5701,0,0,,0.0,-0.15,0.17,0.85,0.48,0.1,0.29,0.02,-3.42,2.15,8.7,0.0,0.0,0.0,-4.17,1.45,8.75
1738246891.590982,5702,0,0,,0.0,-0.16,0.17,0.85,0.48,-0.04,0.33,-0.02,-4.07,-0.08,8.24,0.0,0.0,0.0,-4.22,1.44,8.73
1738246891.6057107,5703,0,0,,0.0,-0.16,0.18,0.85,0.48,0.0,0.36,-0.02,-3.67,2.3,9.15,0.0,0.0,0.0,-4.28,1.45,8.69
1738246891.6247942,5704,0,0,,0.0,-0.16,0.18,0.85,0.48,0.05,0.36,-0.03,-3.29,2.35,8.65,0.0,0.0,0.0,-4.31,1.45,8.68
1738246891.640806,5705,0,0,,0.0,-0.16,0.18,0.85,0.48,-0.06,0.46,-0.09,-4.64,1.19,8.62,0.0,0.0,0.0,-4.39,1.44,8.64
1738246891.6555529,5706,0,0,,0.0,-0.17,0.18,0.84,0.48,-0.09,0.48,-0.12,-4.83,1.67,9.57,0.0,0.0,0.0,-4.47,1.41,8.61
1738246891.6759307,5707,0,0,,0.0,-0.17,0.18,0.84,0.48,-0.09,0.37,-0.12,-4.3,1.37,9.21,0.0,0.0,0.0,-4.5,1.4,8.59
1738246891.690805,5708,0,0,,0.0,-0.17,0.18,0.84,0.48,-0.02,0.33,-0.07,-5.98,1.16,8.64,0.0,0.0,0.0,-4.56,1.39,8.56
1738246891.7065268,5709,0,0,,0.0,-0.18,0.18,0.84,0.48,-0.01,0.3,-0.06,-5.33,1.11,9.09,0.0,0.0,0.0,-4.6,1.38,8.54
1738246891.7262828,5710,0,0,,0.0,-0.18,0.18,0.84,0.48,0.05,0.14,-0.01,-4.5,1.36,9.1,0.0,0.0,0.0,-4.61,1.38,8.53
1738246891.7410169,5711,0,0,,0.0,-0.18,0.18,0.84,0.48,0.07,0.08,0.04,-4.93,1.14,8.71,0.0,0.0,0.0,-4.63,1.4,8.52
1738246891.7566369,5712,0,0,,0.0,-0.18,0.19,0.84,0.48,0.08,0.05,0.05,-4.77,1.48,8.79,0.0,0.0,0.0,-4.63,1.42,8.52
1738246891.7761059,5713,0,0,,0.0,-0.18,0.19,0.84,0.48,0.1,-0.01,0.07,-4.51,1.79,8.44,0.0,0.0,0.0,-4.63,1.43,8.52
1738246891.791127,5714,0,0,,0.0,-0.18,0.19,0.84,0.47,0.08,0.01,0.06,-4.82,1.27,8.27,0.0,0.0,0.0,-4.63,1.45,8.51
1738246891.806312,5715,0,0,,0.0,-0.17,0.19,0.84,0.47,0.08,0.01,0.05,-4.17,1.6,8.54,0.0,0.0,0.0,-4.63,1.47,8.51
1738246891.8257148,5716,0,0,,0.0,-0.17,0.19,0.84,0.47,0.08,0.0,0.04,-4.26,1.56,8.43,0.0,0.0,0.0,-4.63,1.47,8.51
1738246891.8416035,5717,0,0,,0.0,-0.17,0.19,0.84,0.47,0.07,0.03,0.03,-5.12,1.23,8.29,0.0,0.0,0.0,-4.64,1.49,8.5
1738246891.8565319,5718,0,0,,0.0,-0.17,0.19,0.84,0.47,0.05,0.03,0.02,-3.96,1.49,8.73,0.0,0.0,0.0,-4.64,1.5,8.5
1738246891.875589,5719,0,0,,0.0,-0.17,0.19,0.84,0.47,0.04,-0.02,0.02,-4.94,1.28,8.57,0.0,0.0,0.0,-4.64,1.5,8.5
1738246891.8908694,5720,0,0,,0.0,-0.17,0.19,0.84,0.47,0.08,0.01,0.04,-4.9,1.57,8.49,0.0,0.0,0.0,-4.64,1.51,8.5
1738246891.9060688,5721,0,0,,0.0,-0.17,0.19,0.84,0.47,0.1,-0.0,0.05,-4.37,1.59,8.71,0.0,0.0,0.0,-4.64,1.53,8.5
1738246891.9254646,5722,0,0,,0.0,-0.17,0.19,0.84,0.47,0.13,-0.01,0.06,-4.35,1.47,8.6,0.0,0.0,0.0,-4.64,1.55,8.49
1738246891.9409914,5723,0,0,,0.0,-0.17,0.19,0.84,0.47,0.13,0.02,0.06,-4.83,1.51,8.32,0.0,0.0,0.0,-4.64,1.57,8.49
1738246891.9566803,5724,0,0,,0.0,-0.17,0.19,0.84,0.47,0.13,0.04,0.06,-4.34,1.55,8.64,0.0,0.0,0.0,-4.64,1.6,8.48
1738246891.9731805,5725,0,0,,0.0,-0.17,0.19,0.84,0.47,0.13,0.02,0.06,-4.37,1.8,8.53,0.0,0.0,0.0,-4.64,1.61,8.48
1738246891.9897184,5726,0,0,,0.0,-0.17,0.2,0.84,0.47,0.12,0.04,0.05,-4.64,1.79,8.33,0.0,0.0,0.0,-4.64,1.64,8.47
1738246892.00482,5727,0,0,,0.0,-0.17,0.2,0.84,0.47,0.11,0.05,0.04,-4.07,1.9,8.71,0.0,0.0,0.0,-4.65,1.65,8.47
1738246892.0210342,5728,0,0,,0.0,-0.17,0.2,0.84,0.47,0.1,0.04,0.03,-4.79,1.65,8.48,0.0,0.0,0.0,-4.65,1.67,8.46
1738246892.0390227,5729,0,0,,0.0,-0.17,0.2,0.84,0.47,0.09,0.05,0.03,-5.01,1.78,8.39,0.0,0.0,0.0,-4.66,1.69,8.45
1738246892.0549989,5730,0,0,,0.0,-0.17,0.2,0.84,0.47,0.08,0.05,0.02,-3.71,1.93,8.8,0.0,0.0,0.0,-4.66,1.69,8.45
1738246892.0720868,5731,0,0,,0.0,-0.17,0.2,0.84,0.47,0.07,0.05,0.01,-4.16,1.9,8.61,0.0,0.0,0.0,-4.67,1.71,8.44
1738246892.0894783,5732,0,0,,0.0,-0.17,0.2,0.84,0.47,0.07,0.06,0.01,-5.1,1.6,8.3,0.0,0.0,0.0,-4.68,1.72,8.44
1738246892.104162,5733,0,0,,0.0,-0.17,0.2,0.84,0.47,0.07,0.06,-0.0,-4.16,1.72,8.63,0.0,0.0,0.0,-4.68,1.72,8.43
1738246892.1189895,5734,0,0,,0.0,-0.17,0.2,0.84,0.47,0.07,0.05,0.0,-5.11,1.43,8.24,0.0,0.0,0.0,-4.69,1.74,8.43
1738246892.1388369,5735,0,0,,0.0,-0.17,0.2,0.84,0.47,0.06,0.06,-0.01,-5.03,1.71,8.25,0.0,0.0,0.0,-4.7,1.74,8.42
1738246892.15412,5736,0,0,,0.0,-0.17,0.2,0.84,0.47,0.06,0.07,-0.01,-4.21,1.87,8.62,0.0,0.0,0.0,-4.71,1.75,8.41
1738246892.1695437,5737,0,0,,0.0,-0.17,0.2,0.84,0.47,0.05,0.08,-0.02,-5.0,1.55,8.26,0.0,0.0,0.0,-4.72,1.76,8.4
1738246892.189534,5738,0,0,,0.0,-0.17,0.2,0.84,0.47,0.05,0.09,-0.02,-4.73,1.74,8.38,0.0,0.0,0.0,-4.74,1.76,8.39
1738246892.2036457,5739,0,0,,0.0,-0.17,0.21,0.84,0.47,0.07,0.12,-0.04,-4.44,1.81,8.6,0.0,0.0,0.0,-4.75,1.77,8.39
1738246892.219087,5740,0,0,,0.0,-0.17,0.21,0.84,0.47,0.06,0.18,-0.06,-4.95,1.69,8.38,0.0,0.0,0.0,-4.78,1.77,8.37
1738246892.2391748,5741,0,0,,0.0,-0.18,0.21,0.84,0.47,0.07,0.22,-0.08,-5.23,1.41,8.22,0.0,0.0,0.0,-4.82,1.77,8.34
1738246892.2538433,5742,0,0,,0.0,-0.18,0.21,0.84,0.47,0.08,0.33,-0.11,-4.47,1.53,8.65,0.0,0.0,0.0,-4.85,1.78,8.33
1738246892.269523,5743,0,0,,0.0,-0.18,0.21,0.84,0.47,0.09,0.45,-0.11,-5.05,1.65,8.24,0.0,0.0,0.0,-4.92,1.78,8.28
1738246892.2884924,5744,0,0,,0.0,-0.18,0.21,0.83,0.47,0.11,0.51,-0.11,-5.07,1.49,8.29,0.0,0.0,0.0,-5.01,1.79,8.23
1738246892.3037775,5745,0,0,,0.0,-0.19,0.22,0.83,0.47,0.14,0.65,-0.12,-4.41,1.76,8.6,0.0,0.0,0.0,-5.07,1.79,8.19
1738246892.3187275,5746,0,0,,0.0,-0.19,0.22,0.83,0.47,0.14,0.85,-0.15,-5.09,1.8,8.15,0.0,0.0,0.0,-5.19,1.8,8.11
1738246892.3387616,5747,0,0,,0.0,-0.2,0.23,0.83,0.47,0.14,0.95,-0.18,-5.19,1.53,8.12,0.0,0.0,0.0,-5.27,1.8,8.06
1738246892.3540332,5748,0,0,,0.0,-0.21,0.23,0.83,0.47,0.14,1.15,-0.23,-4.22,1.78,7.16,0.0,0.0,0.0,-5.45,1.8,7.94
1738246892.3699636,5749,0,0,,0.0,-0.22,0.24,0.82,0.47,0.11,1.45,-0.28,-7.5,2.39,9.0,0.0,0.0,0.0,-5.67,1.79,7.79
1738246892.389455,5750,0,0,,0.0,-0.23,0.24,0.82,0.47,0.1,1.47,-0.25,-4.07,1.79,6.74,0.0,0.0,0.0,-5.91,1.77,7.61
1738246892.4046643,5751,0,0,,0.0,-0.24,0.25,0.81,0.47,0.04,1.85,-0.39,-7.23,1.96,8.14,0.0,0.0,0.0,-6.05,1.75,7.51
1738246892.419515,5752,0,0,,0.0,-0.25,0.25,0.81,0.47,-0.07,2.05,-0.48,-6.04,1.88,8.08,0.0,0.0,0.0,-6.36,1.69,7.27
1738246892.4393303,5753,0,0,,0.0,-0.27,0.26,0.8,0.47,-0.11,2.19,-0.5,-7.92,1.7,7.1,0.0,0.0,0.0,-6.68,1.6,6.99
1738246892.454173,5754,0,0,,0.0,-0.28,0.27,0.79,0.47,-0.15,2.34,-0.51,-6.13,1.37,6.97,0.0,0.0,0.0,-6.85,1.56,6.83
1738246892.4699166,5755,0,0,,0.0,-0.31,0.27,0.79,0.46,-0.17,2.55,-0.58,-7.02,1.07,6.17,0.0,0.0,0.0,-7.19,1.46,6.5
1738246892.490062,5756,0,0,,0.0,-0.33,0.28,0.78,0.46,-0.14,2.63,-0.58,-6.86,1.33,6.55,0.0,0.0,0.0,-7.53,1.36,6.12
1738246892.5041866,5757,0,0,,0.0,-0.34,0.29,0.77,0.46,-0.17,2.84,-0.65,-6.58,2.08,6.37,0.0,0.0,0.0,-7.71,1.3,5.91
1738246892.51934,5758,0,0,,0.0,-0.37,0.3,0.76,0.45,-0.34,3.27,-0.8,-7.74,2.4,7.14,0.0,0.0,0.0,-8.07,1.15,5.44
1738246892.539163,5759,0,0,,0.0,-0.4,0.31,0.74,0.45,-0.51,3.66,-0.93,-8.4,1.42,7.8,0.0,0.0,0.0,-8.48,0.94,4.82
1738246892.5542855,5760,0,0,,0.0,-0.42,0.31,0.73,0.44,-0.34,4.73,-1.22,-11.03,3.23,10.1,0.0,0.0,0.0,-8.7,0.82,4.43
1738246892.57,5761,0,0,,0.0,-0.46,0.33,0.7,0.44,-0.24,5.4,-1.54,-12.59,3.62,10.51,0.0,0.0,0.0,-9.13,0.57,3.52
1738246892.5896113,5762,0,0,,0.0,-0.51,0.34,0.67,0.43,-0.33,5.54,-1.97,-12.18,5.92,11.87,0.0,0.0,0.0,-9.47,0.17,2.51
1738246892.604685,5763,0,0,,0.0,-0.53,0.35,0.65,0.43,-0.53,6.0,-2.28,-14.6,1.56,16.16,0.0,0.0,0.0,-9.6,-0.04,1.95
1738246892.619838,5764,0,0,,0.0,-0.56,0.36,0.62,0.42,0.11,3.74,-1.41,-12.52,11.1,16.46,0.0,0.0,0.0,-9.74,-0.36,1.07
1738246892.6396732,5765,0,0,,0.0,-0.58,0.35,0.61,0.42,-0.23,1.58,-1.05,-5.97,8.4,13.07,0.0,0.0,0.0,-9.75,-0.52,0.85
1738246892.6544008,5766,0,0,,0.0,-0.58,0.35,0.61,0.41,-1.14,0.65,-0.41,-7.39,0.72,9.66,0.0,0.0,0.0,-9.75,-0.57,0.79
1738246892.671192,5767,0,0,,0.0,-0.59,0.34,0.61,0.41,-0.44,0.07,-0.45,-5.7,1.2,10.8,0.0,0.0,0.0,-9.75,-0.66,0.73
1738246892.689909,5768,0,0,,0.0,-0.59,0.34,0.61,0.42,-0.4,-0.36,-0.57,-5.02,0.14,10.1,0.0,0.0,0.0,-9.73,-0.79,0.83
1738246892.7049878,5769,0,0,,0.0,-0.59,0.33,0.61,0.42,-0.14,-1.2,-0.84,-3.8,0.32,7.57,0.0,0.0,0.0,-9.72,-0.87,0.94
1738246892.7197793,5770,0,0,,0.0,-0.58,0.32,0.62,0.43,0.14,-1.92,-0.86,-3.68,1.21,6.5,0.0,0.0,0.0,-9.66,-1.04,1.28
1738246892.740158,5771,0,0,,0.0,-0.56,0.31,0.63,0.44,0.17,-2.19,-0.72,-3.85,1.82,5.54,0.0,0.0,0.0,-9.58,-1.15,1.71
1738246892.754285,5772,0,0,,0.0,-0.56,0.3,0.63,0.45,0.16,-2.7,-0.32,-4.17,0.89,5.42,0.0,0.0,0.0,-9.53,-1.17,1.96
1738246892.770107,5773,0,0,,0.0,-0.54,0.29,0.65,0.46,0.27,-3.19,0.07,-4.83,-0.24,5.66,0.0,0.0,0.0,-9.4,-1.17,2.53
1738246892.789978,5774,0,0,,0.0,-0.51,0.28,0.66,0.47,0.31,-3.41,0.16,-5.22,-0.09,5.94,0.0,0.0,0.0,-9.31,-1.14,2.84
1738246892.804964,5775,0,0,,0.0,-0.5,0.27,0.67,0.47,0.34,-3.8,0.31,-5.89,-0.37,6.26,0.0,0.0,0.0,-9.09,-1.08,3.51
1738246892.8195078,5776,0,0,,0.0,-0.47,0.25,0.69,0.48,0.38,-4.12,0.52,-6.42,-2.26,5.8,0.0,0.0,0.0,-8.79,-0.96,4.22
1738246892.8403254,5777,0,0,,0.0,-0.44,0.24,0.71,0.49,0.45,-4.21,0.56,-7.24,-2.43,6.3,0.0,0.0,0.0,-8.62,-0.9,4.58
1738246892.8546665,5778,0,0,,0.0,-0.42,0.23,0.72,0.5,0.65,-4.32,0.5,-8.74,0.0,6.18,0.0,0.0,0.0,-8.22,-0.75,5.29
1738246892.87026,5779,0,0,,0.0,-0.38,0.22,0.74,0.5,0.61,-4.33,0.52,-9.58,1.76,5.68,0.0,0.0,0.0,-7.76,-0.6,5.96
1738246892.8896925,5780,0,0,,0.0,-0.35,0.21,0.76,0.51,0.54,-4.15,0.96,-10.03,2.05,5.8,0.0,0.0,0.0,-7.51,-0.49,6.27
1738246892.904531,5781,0,0,,0.0,-0.33,0.2,0.77,0.5,0.44,-3.85,1.56,-11.55,0.41,6.57,0.0,0.0,0.0,-7.03,-0.23,6.83
1738246892.9198823,5782,0,0,,0.0,-0.3,0.19,0.79,0.5,0.45,-3.67,1.78,-13.94,-0.63,8.64,0.0,0.0,0.0,-6.53,0.06,7.31
1738246892.9400651,5783,0,0,,0.0,-0.27,0.18,0.81,0.49,0.39,-3.69,2.02,-13.54,-1.38,8.34,0.0,0.0,0.0,-6.26,0.22,7.53
1738246892.9548247,5784,0,0,,0.0,-0.25,0.18,0.82,0.49,0.14,-3.85,1.84,-13.7,-1.41,8.53,0.0,0.0,0.0,-5.68,0.46,7.97
1738246892.9701767,5785,0,0,,0.0,-0.21,0.16,0.83,0.48,0.08,-3.91,1.73,-12.63,-2.29,7.35,0.0,0.0,0.0,-5.04,0.65,8.38
1738246892.9895978,5786,0,0,,0.0,-0.18,0.15,0.85,0.48,0.05,-3.84,1.4,-11.98,-2.58,6.48,0.0,0.0,0.0,-4.71,0.72,8.56
1738246893.0047462,5787,0,0,,0.0,-0.17,0.14,0.85,0.47,0.25,-3.44,1.0,-12.13,-1.9,5.81,0.0,0.0,0.0,-4.1,0.84,8.86
1738246893.0207396,5788,0,0,,0.0,-0.14,0.13,0.86,0.47,0.33,-3.22,0.84,-11.12,-2.02,4.54,0.0,0.0,0.0,-3.55,0.96,9.08
1738246893.0402396,5789,0,0,,0.0,-0.11,0.13,0.86,0.47,0.46,-2.58,0.52,-11.17,-1.91,4.7,0.0,0.0,0.0,-3.31,1.02,9.17
1738246893.054462,5790,0,0,,0.0,-0.11,0.12,0.87,0.47,0.51,-1.9,0.32,-11.89,-0.62,5.25,0.0,0.0,0.0,-2.94,1.13,9.28
1738246893.0706408,5791,0,0,,0.0,-0.09,0.12,0.87,0.47,0.47,-1.69,0.32,-10.42,-1.24,3.25,0.0,0.0,0.0,-2.65,1.23,9.36
1738246893.0903022,5792,0,0,,0.0,-0.08,0.12,0.87,0.47,0.28,-1.15,0.32,-10.3,-1.78,2.25,0.0,0.0,0.0,-2.54,1.26,9.38
1738246893.1046867,5793,0,0,,0.0,-0.08,0.12,0.87,0.47,0.15,-0.4,0.18,-11.09,-1.57,2.49,0.0,0.0,0.0,-2.43,1.31,9.41
1738246893.1201422,5794,0,0,,0.0,-0.08,0.12,0.87,0.47,0.1,-0.07,0.07,-11.4,-0.8,2.06,0.0,0.0,0.0,-2.43,1.32,9.4
1738246893.139952,5795,0,0,,0.0,-0.08,0.12,0.87,0.47,0.06,0.38,-0.06,-11.45,-0.74,2.15,0.0,0.0,0.0,-2.47,1.33,9.39
1738246893.1549354,5796,0,0,,0.0,-0.09,0.12,0.87,0.47,-0.15,0.82,-0.06,-13.19,0.56,3.53,0.0,0.0,0.0,-2.6,1.31,9.36
1738246893.170022,5797,0,0,,0.0,-0.09,0.12,0.87,0.47,-0.36,0.89,0.02,-8.5,0.1,5.65,0.0,0.0,0.0,-2.75,1.25,9.32
1738246893.1897318,5798,0,0,,0.0,-0.1,0.13,0.87,0.47,-0.13,0.78,0.31,-0.64,0.45,7.45,0.0,0.0,0.0,-2.82,1.24,9.3
1738246893.2047782,5799,0,0,,0.0,-0.11,0.13,0.87,0.47,-0.53,2.37,-0.46,-7.93,2.26,19.71,0.0,0.0,0.0,-3.1,1.2,9.22
1738246893.2207358,5800,0,0,,0.0,-0.13,0.14,0.86,0.47,-0.53,2.37,-0.46,-12.06,-4.7,5.43,0.0,0.0,0.0,-3.53,1.1,9.08
1738246893.2399387,5801,0,0,,0.0,-0.14,0.15,0.86,0.47,0.33,1.72,-0.32,-5.08,0.2,12.09,0.0,0.0,0.0,-3.68,1.12,9.01
1738246893.2547483,5802,0,0,,0.0,-0.15,0.15,0.86,0.47,0.43,0.92,-0.16,-6.06,1.54,10.48,0.0,0.0,0.0,-3.86,1.2,8.93
1738246893.2702641,5803,0,0,,0.0,-0.15,0.16,0.86,0.46,0.7,0.74,0.05,-6.2,3.52,12.46,0.0,0.0,0.0,-3.98,1.34,8.85
1738246893.2907677,5804,0,0,,0.0,-0.15,0.17,0.86,0.46,0.63,0.59,0.29,-5.34,2.52,8.72,0.0,0.0,0.0,-4.02,1.41,8.82
1738246893.304623,5805,0,0,,0.0,-0.15,0.17,0.86,0.46,0.21,0.45,0.16,-4.15,3.04,8.65,0.0,0.0,0.0,-4.09,1.49,8.78
1738246893.320866,5806,0,0,,0.0,-0.15,0.17,0.86,0.46,0.21,0.45,0.16,-3.44,2.77,9.41,0.0,0.0,0.0,-4.16,1.54,8.74
1738246893.3406484,5807,0,0,,0.0,-0.16,0.18,0.86,0.46,0.06,0.34,0.02,-2.6,3.39,8.91,0.0,0.0,0.0,-4.19,1.54,8.72
1738246893.3549662,5808,0,0,,0.0,-0.16,0.18,0.86,0.46,-0.23,0.51,-0.16,-4.13,-0.4,8.01,0.0,0.0,0.0,-4.26,1.51,8.69
1738246893.3711808,5809,0,0,,0.0,-0.17,0.18,0.85,0.46,-0.23,0.51,-0.16,-4.1,2.02,8.56,0.0,0.0,0.0,-4.35,1.46,8.66
1738246893.3906395,5810,0,0,,0.0,-0.17,0.18,0.85,0.46,-0.14,0.49,-0.17,-3.18,2.22,9.25,0.0,0.0,0.0,-4.4,1.44,8.64
1738246893.4052784,5811,0,0,,0.0,-0.17,0.18,0.85,0.46,-0.24,0.57,-0.24,-5.24,1.02,8.92,0.0,0.0,0.0,-4.49,1.39,8.6
1738246893.421081,5812,0,0,,0.0,-0.18,0.18,0.85,0.46,-0.24,0.57,-0.24,-5.43,1.45,9.58,0.0,0.0,0.0,-4.59,1.33,8.55
1738246893.4405618,5813,0,0,,0.0,-0.18,0.18,0.85,0.46,-0.04,0.39,-0.11,-5.15,1.07,9.15,0.0,0.0,0.0,-4.63,1.32,8.54
1738246893.4549267,5814,0,0,,0.0,-0.18,0.18,0.85,0.46,0.02,0.27,-0.03,-5.45,1.24,8.87,0.0,0.0,0.0,-4.68,1.31,8.51
1738246893.4711535,5815,0,0,,0.0,-0.19,0.18,0.85,0.46,0.02,0.27,-0.03,-5.38,1.18,8.67,0.0,0.0,0.0,-4.72,1.32,8.48
1738246893.4903877,5816,0,0,,0.0,-0.19,0.18,0.85,0.46,0.18,0.11,0.11,-4.92,1.23,8.65,0.0,0.0,0.0,-4.73,1.34,8.48
1738246893.5051472,5817,0,0,,0.0,-0.19,0.18,0.85,0.46,0.18,0.08,0.14,-5.0,1.15,8.56,0.0,0.0,0.0,-4.74,1.39,8.46
1738246893.5211093,5818,0,0,,0.0,-0.18,0.19,0.85,0.46,0.18,0.08,0.14,-4.5,1.7,8.5,0.0,0.0,0.0,-4.75,1.43,8.45
1738246893.540994,5819,0,0,,0.0,-0.18,0.19,0.85,0.46,0.19,0.06,0.13,-4.83,1.65,8.29,0.0,0.0,0.0,-4.75,1.45,8.45
1738246893.5550365,5820,0,0,,0.0,-0.18,0.19,0.85,0.46,0.1,0.02,0.07,-4.86,1.59,8.56,0.0,0.0,0.0,-4.75,1.48,8.44
1738246893.5712197,5821,0,0,,0.0,-0.18,0.19,0.85,0.46,0.1,0.02,0.07,-4.15,1.73,8.67,0.0,0.0,0.0,-4.75,1.5,8.44
1738246893.5907357,5822,0,0,,0.0,-0.18,0.19,0.85,0.46,0.03,-0.01,0.02,-5.34,1.23,8.38,0.0,0.0,0.0,-4.75,1.5,8.44
1738246893.6055677,5823,0,0,,0.0,-0.18,0.19,0.85,0.46,0.03,-0.02,0.01,-5.43,1.15,8.26,0.0,0.0,0.0,-4.74,1.51,8.44
1738246893.6209116,5824,0,0,,0.0,-0.18,0.19,0.85,0.46,0.03,-0.02,0.01,-4.36,1.54,8.42,0.0,0.0,0.0,-4.74,1.52,8.44
1738246893.6406572,5825,0,0,,0.0,-0.18,0.19,0.85,0.46,0.08,-0.04,0.03,-4.58,1.5,8.59,0.0,0.0,0.0,-4.73,1.53,8.44
1738246893.655753,5826,0,0,,0.0,-0.18,0.19,0.85,0.46,0.12,-0.01,0.06,-5.34,1.19,8.2,0.0,0.0,0.0,-4.73,1.55,8.44
1738246893.6712375,5827,0,0,,0.0,-0.18,0.19,0.85,0.46,0.12,-0.01,0.06,-4.41,1.8,8.49,0.0,0.0,0.0,-4.73,1.57,8.44
1738246893.690789,5828,0,0,,0.0,-0.18,0.19,0.85,0.46,0.1,-0.0,0.05,-4.66,1.64,8.46,0.0,0.0,0.0,-4.73,1.58,8.44
1738246893.705157,5829,0,0,,0.0,-0.18,0.19,0.85,0.46,0.1,-0.02,0.04,-4.25,1.88,8.57,0.0,0.0,0.0,-4.72,1.6,8.43
1738246893.7210245,5830,0,0,,0.0,-0.18,0.19,0.85,0.46,0.09,-0.02,0.04,-4.15,1.87,8.52,0.0,0.0,0.0,-4.72,1.62,8.43
1738246893.7403722,5831,0,0,,0.0,-0.18,0.19,0.85,0.46,0.08,0.03,0.04,-4.79,1.66,8.34,0.0,0.0,0.0,-4.72,1.63,8.43
1738246893.7554798,5832,0,0,,0.0,-0.18,0.2,0.85,0.46,0.08,0.02,0.03,-4.22,1.91,8.59,0.0,0.0,0.0,-4.72,1.65,8.43
1738246893.7712014,5833,0,0,,0.0,-0.18,0.2,0.85,0.46,0.07,0.03,0.03,-4.87,1.64,8.34,0.0,0.0,0.0,-4.72,1.66,8.42
1738246893.790537,5834,0,0,,0.0,-0.18,0.2,0.85,0.46,0.07,0.06,0.02,-5.0,1.7,8.33,0.0,0.0,0.0,-4.73,1.67,8.42
1738246893.8055162,5835,0,0,,0.0,-0.18,0.2,0.85,0.46,0.07,0.05,0.02,-4.89,1.77,8.44,0.0,0.0,0.0,-4.74,1.68,8.41
1738246893.8212132,5836,0,0,,0.0,-0.18,0.2,0.85,0.46,0.07,0.04,0.02,-4.75,1.82,8.41,0.0,0.0,0.0,-4.74,1.7,8.4
1738246893.840551,5837,0,0,,0.0,-0.18,0.2,0.85,0.46,0.05,0.06,0.01,-4.74,1.86,8.45,0.0,0.0,0.0,-4.75,1.7,8.4
1738246893.8554392,5838,0,0,,0.0,-0.18,0.2,0.85,0.46,0.06,0.04,0.0,-3.99,1.8,8.78,0.0,0.0,0.0,-4.76,1.71,8.4
1738246893.8713443,5839,0,0,,0.0,-0.18,0.2,0.85,0.46,0.05,0.06,0.0,-4.36,1.96,8.56,0.0,0.0,0.0,-4.76,1.72,8.39
1738246893.8910768,5840,0,0,,0.0,-0.18,0.2,0.85,0.46,0.05,0.06,-0.0,-4.87,1.58,8.46,0.0,0.0,0.0,-4.77,1.72,8.39
1738246893.9053946,5841,0,0,,0.0,-0.18,0.2,0.85,0.46,0.06,0.05,-0.01,-4.2,1.82,8.56,0.0,0.0,0.0,-4.78,1.73,8.38
1738246893.9218411,5842,0,0,,0.0,-0.18,0.2,0.85,0.46,0.06,0.06,-0.02,-4.44,1.87,8.52,0.0,0.0,0.0,-4.79,1.74,8.37
1738246893.9410071,5843,0,0,,0.0,-0.18,0.2,0.85,0.46,0.06,0.07,-0.03,-4.64,1.84,8.36,0.0,0.0,0.0,-4.8,1.74,8.37
1738246893.955664,5844,0,0,,0.0,-0.18,0.2,0.85,0.46,0.06,0.09,-0.05,-4.38,1.89,8.46,0.0,0.0,0.0,-4.81,1.75,8.36
1738246893.9719334,5845,0,0,,0.0,-0.18,0.2,0.85,0.46,0.05,0.11,-0.07,-5.03,1.77,8.26,0.0,0.0,0.0,-4.83,1.75,8.34
1738246893.990724,5846,0,0,,0.0,-0.18,0.2,0.85,0.46,0.05,0.17,-0.09,-4.47,1.71,8.44,0.0,0.0,0.0,-4.84,1.75,8.34
1738246894.0057366,5847,0,0,,0.0,-0.18,0.21,0.85,0.46,0.06,0.26,-0.12,-3.87,2.05,8.69,0.0,0.0,0.0,-4.89,1.75,8.31
1738246894.0215406,5848,0,0,,0.0,-0.19,0.21,0.84,0.46,0.07,0.32,-0.14,-4.81,1.78,8.5,0.0,0.0,0.0,-4.95,1.75,8.27
1738246894.0413094,5849,0,0,,0.0,-0.19,0.21,0.84,0.46,0.07,0.48,-0.17,-4.96,1.64,8.24,0.0,0.0,0.0,-4.99,1.75,8.25
1738246894.055871,5850,0,0,,0.0,-0.19,0.21,0.84,0.46,0.09,0.66,-0.17,-4.0,1.72,8.07,0.0,0.0,0.0,-5.07,1.74,8.2
1738246894.0721467,5851,0,0,,0.0,-0.2,0.22,0.84,0.46,0.1,0.8,-0.19,-3.2,1.76,7.59,0.0,0.0,0.0,-5.21,1.74,8.11
1738246894.0916636,5852,0,0,,0.0,-0.21,0.22,0.84,0.46,0.11,0.97,-0.16,-5.31,1.99,7.98,0.0,0.0,0.0,-5.29,1.74,8.06
1738246894.1056807,5853,0,0,,0.0,-0.21,0.22,0.83,0.46,0.11,1.34,-0.27,-4.47,1.71,8.4,0.0,0.0,0.0,-5.49,1.73,7.93
1738246894.122301,5854,0,0,,0.0,-0.23,0.23,0.83,0.46,0.09,1.45,-0.29,-5.8,1.54,6.98,0.0,0.0,0.0,-5.73,1.71,7.76
1738246894.1413622,5855,0,0,,0.0,-0.24,0.24,0.82,0.46,0.05,1.73,-0.31,-5.45,1.97,8.16,0.0,0.0,0.0,-5.86,1.7,7.66
1738246894.1565397,5856,0,0,,0.0,-0.25,0.24,0.82,0.45,-0.0,1.88,-0.33,-5.13,1.98,7.75,0.0,0.0,0.0,-6.15,1.66,7.45
1738246894.1722803,5857,0,0,,0.0,-0.27,0.25,0.81,0.45,-0.05,2.0,-0.35,-7.1,2.0,7.29,0.0,0.0,0.0,-6.45,1.61,7.2
1738246894.1922226,5858,0,0,,0.0,-0.28,0.26,0.81,0.45,-0.12,2.16,-0.43,-6.29,1.22,6.87,0.0,0.0,0.0,-6.6,1.57,7.07
1738246894.206267,5859,0,0,,0.0,-0.29,0.26,0.8,0.45,-0.12,2.26,-0.46,-6.3,1.35,7.36,0.0,0.0,0.0,-6.92,1.5,6.78
1738246894.2224758,5860,0,0,,0.0,-0.31,0.27,0.79,0.45,-0.11,2.3,-0.46,-6.77,1.32,6.86,0.0,0.0,0.0,-7.23,1.42,6.46
1738246894.2420192,5861,0,0,,0.0,-0.34,0.28,0.78,0.44,-0.08,2.46,-0.55,-7.14,1.51,6.29,0.0,0.0,0.0,-7.39,1.37,6.29
1738246894.2561593,5862,0,0,,0.0,-0.35,0.28,0.78,0.44,-0.11,2.67,-0.66,-6.86,2.05,6.62,0.0,0.0,0.0,-7.72,1.27,5.91
1738246894.2724144,5863,0,0,,0.0,-0.37,0.29,0.77,0.44,-0.17,2.84,-0.75,-6.97,2.12,6.53,0.0,0.0,0.0,-8.06,1.12,5.46
1738246894.2920566,5864,0,0,,0.0,-0.4,0.3,0.75,0.44,-0.39,3.39,-0.95,-7.62,2.22,7.43,0.0,0.0,0.0,-8.24,1.03,5.2
1738246894.3063846,5865,0,0,,0.0,-0.42,0.3,0.74,0.43,0.02,4.48,-1.23,-9.82,-0.71,7.38,0.0,0.0,0.0,-8.66,0.82,4.52
1738246894.322417,5866,0,0,,0.0,-0.46,0.32,0.71,0.43,0.36,4.96,-1.2,-11.79,2.76,9.48,0.0,0.0,0.0,-9.08,0.62,3.63
