Time,header.seq,header.stamp.secs,header.stamp.nsecs,header.frame_id,time_stamp,quat_x,quat_y,quat_z,quat_w,gyro_x,gyro_y,gyro_z,accel_x,accel_y,accel_z,euler_x,euler_y,euler_z,gravity_x,gravity_y,gravity_z
1738246876.695504,4811,0,0,,0.0,-0.77,0.27,0.56,0.14,0.35,1.8,-0.4,-9.77,-0.78,-1.04,0.0,0.0,0.0,-9.19,0.77,-3.31
1738246876.7097387,4812,0,0,,0.0,-0.78,0.27,0.55,0.14,0.45,1.84,-0.39,-9.17,-0.56,-1.38,0.0,0.0,0.0,-9.14,0.72,-3.47
1738246876.726987,4813,0,0,,0.0,-0.79,0.27,0.53,0.14,0.7,2.01,-0.32,-9.54,-0.42,-1.81,0.0,0.0,0.0,-9.0,0.61,-3.83
1738246876.7450309,4814,0,0,,0.0,-0.8,0.28,0.51,0.15,0.79,2.26,-0.26,-10.58,-0.15,-0.94,0.0,0.0,0.0,-8.83,0.5,-4.21
1738246876.7596498,4815,0,0,,0.0,-0.8,0.28,0.5,0.15,0.83,2.36,-0.19,-10.84,0.33,-1.25,0.0,0.0,0.0,-8.73,0.45,-4.42
1738246876.777465,4816,0,0,,0.0,-0.82,0.29,0.48,0.15,0.81,2.65,0.05,-12.97,2.28,-2.33,0.0,0.0,0.0,-8.5,0.37,-4.85
1738246876.7951126,4817,0,0,,0.0,-0.83,0.3,0.46,0.14,0.62,2.83,0.26,-15.54,2.91,-0.25,0.0,0.0,0.0,-8.23,0.34,-5.32
1738246876.8096268,4818,0,0,,0.0,-0.83,0.3,0.45,0.14,0.51,2.76,0.38,-14.13,1.94,-1.58,0.0,0.0,0.0,-8.08,0.34,-5.53
1738246876.8278766,4819,0,0,,0.0,-0.84,0.31,0.42,0.13,0.23,2.82,0.39,-12.85,1.12,-4.92,0.0,0.0,0.0,-7.77,0.37,-5.96
1738246876.8453593,4820,0,0,,0.0,-0.85,0.31,0.4,0.12,-0.21,2.86,0.32,-12.32,2.46,-5.25,0.0,0.0,0.0,-7.42,0.43,-6.38
1738246876.8602114,4821,0,0,,0.0,-0.86,0.32,0.39,0.11,-0.54,2.8,0.32,-12.01,1.54,-5.49,0.0,0.0,0.0,-7.24,0.49,-6.58
1738246876.8790345,4822,0,0,,0.0,-0.87,0.32,0.37,0.1,-1.05,2.47,0.38,-12.3,-0.24,-2.44,0.0,0.0,0.0,-6.9,0.67,-6.92
1738246876.895757,4823,0,0,,0.0,-0.87,0.32,0.36,0.08,-0.74,1.85,0.21,-9.96,-0.46,-3.66,0.0,0.0,0.0,-6.63,0.82,-7.17
1738246876.9107225,4824,0,0,,0.0,-0.88,0.31,0.35,0.08,-0.47,1.56,0.14,-8.98,0.45,-4.07,0.0,0.0,0.0,-6.52,0.86,-7.27
1738246876.9295032,4825,0,0,,0.0,-0.88,0.31,0.34,0.07,-0.26,0.88,0.09,-6.72,0.41,-3.49,0.0,0.0,0.0,-6.36,0.92,-7.4
1738246876.9461784,4826,0,0,,0.0,-0.88,0.31,0.34,0.07,-0.08,0.16,0.05,-5.45,-0.4,-2.92,0.0,0.0,0.0,-6.31,0.95,-7.43
1738246876.9607317,4827,0,0,,0.0,-0.88,0.31,0.34,0.07,0.09,-0.19,-0.01,-5.1,-0.2,-2.69,0.0,0.0,0.0,-6.33,0.94,-7.42
1738246876.9794474,4828,0,0,,0.0,-0.88,0.31,0.35,0.07,0.2,-0.9,-0.15,-4.86,-0.04,-2.64,0.0,0.0,0.0,-6.43,0.9,-7.34
1738246876.996071,4829,0,0,,0.0,-0.88,0.31,0.36,0.08,0.14,-1.54,-0.23,-4.85,0.49,-2.38,0.0,0.0,0.0,-6.63,0.85,-7.17
1738246877.011336,4830,0,0,,0.0,-0.87,0.31,0.37,0.08,0.04,-1.85,-0.25,-4.79,0.48,-2.35,0.0,0.0,0.0,-6.76,0.83,-7.05
1738246877.0293179,4831,0,0,,0.0,-0.87,0.3,0.39,0.09,-0.18,-2.49,-0.29,-4.86,0.16,-2.36,0.0,0.0,0.0,-7.08,0.81,-6.73
1738246877.0464778,4832,0,0,,0.0,-0.86,0.3,0.41,0.1,-0.34,-3.05,-0.35,-5.2,0.13,-2.55,0.0,0.0,0.0,-7.45,0.8,-6.32
1738246877.0609426,4833,0,0,,0.0,-0.85,0.29,0.42,0.1,-0.42,-3.32,-0.38,-5.74,0.23,-2.86,0.0,0.0,0.0,-7.65,0.8,-6.07
1738246877.0800984,4834,0,0,,0.0,-0.84,0.29,0.46,0.11,-0.52,-3.82,-0.43,-6.67,0.07,-3.03,0.0,0.0,0.0,-8.07,0.79,-5.5
1738246877.0966432,4835,0,0,,0.0,-0.82,0.27,0.49,0.12,-0.47,-4.27,-0.47,-7.68,0.09,-3.57,0.0,0.0,0.0,-8.5,0.76,-4.82
1738246877.1114624,4836,0,0,,0.0,-0.8,0.26,0.53,0.13,-0.46,-4.46,-0.48,-8.23,0.12,-3.83,0.0,0.0,0.0,-8.7,0.74,-4.45
1738246877.1301346,4837,0,0,,0.0,-0.79,0.26,0.55,0.13,-0.62,-4.75,-0.47,-9.71,1.12,-4.68,0.0,0.0,0.0,-9.07,0.7,-3.63
1738246877.1469889,4838,0,0,,0.0,-0.76,0.24,0.58,0.14,-0.97,-4.92,-0.45,-10.62,1.0,-5.35,0.0,0.0,0.0,-9.38,0.68,-2.75
1738246877.1621447,4839,0,0,,0.0,-0.74,0.23,0.62,0.15,-1.09,-4.98,-0.47,-11.54,1.04,-5.96,0.0,0.0,0.0,-9.51,0.66,-2.29
1738246877.1809878,4840,0,0,,0.0,-0.72,0.22,0.64,0.15,-1.17,-5.02,-0.51,-12.16,0.7,-6.42,0.0,0.0,0.0,-9.69,0.61,-1.34
1738246877.1972134,4841,0,0,,0.0,-0.69,0.2,0.68,0.16,-0.88,-5.01,-0.57,-13.03,0.11,-6.69,0.0,0.0,0.0,-9.78,0.52,-0.38
1738246877.2123501,4842,0,0,,0.0,-0.66,0.18,0.71,0.16,-0.63,-4.96,-0.58,-13.27,0.18,-6.65,0.0,0.0,0.0,-9.79,0.47,0.08
1738246877.2309773,4843,0,0,,0.0,-0.65,0.18,0.72,0.17,-0.18,-4.8,-0.55,-13.69,0.64,-6.59,0.0,0.0,0.0,-9.74,0.36,1.0
1738246877.247453,4844,0,0,,0.0,-0.61,0.17,0.75,0.18,0.07,-4.44,-0.43,-13.16,0.56,-6.27,0.0,0.0,0.0,-9.62,0.27,1.86
1738246877.2627015,4845,0,0,,0.0,-0.58,0.16,0.77,0.19,0.17,-4.21,-0.37,-13.02,0.79,-6.45,0.0,0.0,0.0,-9.54,0.24,2.25
1738246877.2809873,4846,0,0,,0.0,-0.57,0.16,0.78,0.2,0.29,-3.64,-0.28,-12.46,0.32,-6.22,0.0,0.0,0.0,-9.35,0.2,2.94
1738246877.2975075,4847,0,0,,0.0,-0.55,0.15,0.8,0.2,0.44,-2.92,-0.22,-10.55,0.18,-6.22,0.0,0.0,0.0,-9.15,0.18,3.49
1738246877.3127482,4848,0,0,,0.0,-0.53,0.15,0.81,0.21,0.48,-2.52,-0.17,-10.04,0.28,-6.2,0.0,0.0,0.0,-8.99,0.19,3.9
1738246877.3309448,4849,0,0,,0.0,-0.52,0.15,0.81,0.21,0.48,-1.7,-0.02,-8.7,0.9,-6.12,0.0,0.0,0.0,-8.92,0.21,4.05
1738246877.347551,4850,0,0,,0.0,-0.51,0.15,0.82,0.22,0.24,-0.82,0.09,-8.42,1.2,-5.77,0.0,0.0,0.0,-8.84,0.25,4.22
1738246877.3624284,4851,0,0,,0.0,-0.51,0.15,0.82,0.22,0.02,-0.4,0.1,-8.46,1.08,-5.74,0.0,0.0,0.0,-8.82,0.26,4.26
1738246877.3812044,4852,0,0,,0.0,-0.51,0.15,0.82,0.21,-0.38,0.39,0.13,-8.72,1.04,-5.52,0.0,0.0,0.0,-8.84,0.25,4.23
1738246877.397439,4853,0,0,,0.0,-0.52,0.15,0.82,0.21,-0.62,1.01,0.17,-9.34,0.78,-3.8,0.0,0.0,0.0,-8.91,0.24,4.08
1738246877.4128683,4854,0,0,,0.0,-0.53,0.15,0.81,0.2,-0.7,1.18,0.2,-10.98,0.78,2.94,0.0,0.0,0.0,-8.95,0.23,3.98
1738246877.4313097,4855,0,0,,0.0,-0.53,0.15,0.81,0.2,-0.35,0.33,0.13,-19.93,-1.91,27.78,0.0,0.0,0.0,-9.01,0.22,3.85
1738246877.4480305,4856,0,0,,0.0,-0.53,0.14,0.81,0.2,-0.1,-0.44,0.38,-6.72,-2.53,-6.76,0.0,0.0,0.0,-8.97,0.25,3.93
1738246877.462665,4857,0,0,,0.0,-0.53,0.15,0.81,0.2,0.32,-0.03,0.51,-5.63,-1.19,-7.47,0.0,0.0,0.0,-8.99,0.35,3.89
1738246877.481225,4858,0,0,,0.0,-0.53,0.15,0.81,0.19,0.08,0.67,0.27,-12.7,-0.53,3.74,0.0,0.0,0.0,-9.01,0.38,3.83
1738246877.497864,4859,0,0,,0.0,-0.54,0.15,0.81,0.19,-0.75,0.61,0.39,-10.0,-0.08,2.37,0.0,0.0,0.0,-9.06,0.4,3.73
1738246877.5125923,4860,0,0,,0.0,-0.54,0.15,0.81,0.18,-0.86,0.55,0.33,-8.43,-1.64,2.59,0.0,0.0,0.0,-9.09,0.4,3.64
1738246877.5319257,4861,0,0,,0.0,-0.54,0.15,0.81,0.18,-0.07,0.56,0.33,-9.11,-0.78,3.52,0.0,0.0,0.0,-9.11,0.43,3.59
1738246877.5483286,4862,0,0,,0.0,-0.55,0.15,0.8,0.18,0.27,0.61,0.34,-8.44,1.5,3.47,0.0,0.0,0.0,-9.15,0.51,3.48
1738246877.5627759,4863,0,0,,0.0,-0.55,0.16,0.8,0.18,0.31,0.59,0.31,-8.61,1.55,4.12,0.0,0.0,0.0,-9.18,0.59,3.37
1738246877.5815086,4864,0,0,,0.0,-0.55,0.16,0.8,0.17,0.38,0.58,0.36,-8.91,0.84,3.16,0.0,0.0,0.0,-9.2,0.63,3.32
1738246877.5980706,4865,0,0,,0.0,-0.56,0.17,0.8,0.17,0.34,0.64,0.38,-8.56,1.58,2.49,0.0,0.0,0.0,-9.23,0.72,3.2
1738246877.6134765,4866,0,0,,0.0,-0.56,0.17,0.79,0.17,0.14,0.68,0.39,-8.58,1.69,2.44,0.0,0.0,0.0,-9.27,0.8,3.08
1738246877.632225,4867,0,0,,0.0,-0.56,0.17,0.79,0.16,-0.18,0.68,0.43,-9.38,1.94,2.06,0.0,0.0,0.0,-9.29,0.83,3.02
1738246877.648571,4868,0,0,,0.0,-0.57,0.17,0.79,0.16,-0.5,0.68,0.46,-9.64,1.7,1.35,0.0,0.0,0.0,-9.32,0.89,2.9
1738246877.6637511,4869,0,0,,0.0,-0.57,0.17,0.79,0.15,-0.57,0.67,0.45,-9.89,1.0,1.7,0.0,0.0,0.0,-9.35,0.94,2.79
1738246877.6821675,4870,0,0,,0.0,-0.58,0.17,0.78,0.15,-0.39,0.61,0.4,-10.05,0.18,1.18,0.0,0.0,0.0,-9.36,0.96,2.74
1738246877.6986656,4871,0,0,,0.0,-0.58,0.17,0.78,0.14,-0.12,0.57,0.33,-10.06,0.22,0.78,0.0,0.0,0.0,-9.38,1.02,2.64
1738246877.71372,4872,0,0,,0.0,-0.58,0.18,0.78,0.14,-0.06,0.59,0.31,-10.36,-0.16,1.49,0.0,0.0,0.0,-9.41,1.07,2.53
1738246877.7321284,4873,0,0,,0.0,-0.59,0.18,0.78,0.14,0.09,0.59,0.26,-10.03,0.05,1.55,0.0,0.0,0.0,-9.42,1.1,2.48
1738246877.7487001,4874,0,0,,0.0,-0.59,0.18,0.78,0.14,0.25,0.63,0.21,-9.67,0.9,1.43,0.0,0.0,0.0,-9.44,1.15,2.36
1738246877.7639909,4875,0,0,,0.0,-0.59,0.18,0.77,0.14,0.3,0.63,0.18,-9.57,1.13,2.14,0.0,0.0,0.0,-9.47,1.19,2.24
1738246877.7821326,4876,0,0,,0.0,-0.6,0.19,0.77,0.14,0.42,0.63,0.13,-9.05,1.24,1.87,0.0,0.0,0.0,-9.48,1.22,2.18
1738246877.7988257,4877,0,0,,0.0,-0.6,0.19,0.77,0.14,0.53,0.65,0.1,-9.26,1.26,1.83,0.0,0.0,0.0,-9.5,1.26,2.05
1738246877.813668,4878,0,0,,0.0,-0.6,0.2,0.76,0.14,0.56,0.65,0.08,-9.47,1.17,2.1,0.0,0.0,0.0,-9.52,1.29,1.92
1738246877.8322265,4879,0,0,,0.0,-0.61,0.2,0.76,0.14,0.55,0.59,0.08,-9.38,1.31,0.83,0.0,0.0,0.0,-9.53,1.31,1.85
1738246877.8487122,4880,0,0,,0.0,-0.61,0.21,0.75,0.14,0.44,0.59,0.09,-9.75,1.27,0.86,0.0,0.0,0.0,-9.55,1.34,1.73
1738246877.8638911,4881,0,0,,0.0,-0.61,0.21,0.75,0.14,0.39,0.56,0.09,-9.91,1.11,1.03,0.0,0.0,0.0,-9.57,1.37,1.62
1738246877.882808,4882,0,0,,0.0,-0.61,0.21,0.75,0.14,0.29,0.52,0.1,-9.62,0.98,0.55,0.0,0.0,0.0,-9.57,1.38,1.57
1738246877.8984373,4883,0,0,,0.0,-0.62,0.21,0.74,0.14,0.29,0.56,0.09,-10.0,0.75,1.09,0.0,0.0,0.0,-9.59,1.41,1.46
1738246877.913973,4884,0,0,,0.0,-0.62,0.22,0.74,0.14,0.31,0.55,0.08,-9.96,0.78,0.92,0.0,0.0,0.0,-9.6,1.43,1.35
1738246877.932399,4885,0,0,,0.0,-0.62,0.22,0.74,0.14,0.31,0.55,0.07,-9.63,1.15,0.48,0.0,0.0,0.0,-9.61,1.44,1.3
1738246877.949302,4886,0,0,,0.0,-0.62,0.22,0.73,0.14,0.26,0.59,0.05,-9.75,1.38,0.94,0.0,0.0,0.0,-9.62,1.46,1.18
1738246877.963865,4887,0,0,,0.0,-0.63,0.23,0.73,0.14,0.23,0.58,0.04,-9.83,1.32,0.98,0.0,0.0,0.0,-9.63,1.47,1.07
1738246877.9825256,4888,0,0,,0.0,-0.63,0.23,0.73,0.14,0.2,0.57,0.03,-9.59,1.25,0.55,0.0,0.0,0.0,-9.64,1.48,1.01
1738246877.9991972,4889,0,0,,0.0,-0.63,0.23,0.73,0.14,0.2,0.6,0.02,-9.83,1.23,0.58,0.0,0.0,0.0,-9.65,1.49,0.89
1738246878.013547,4890,0,0,,0.0,-0.64,0.23,0.72,0.14,0.19,0.58,0.01,-9.64,1.21,0.18,0.0,0.0,0.0,-9.65,1.49,0.78
1738246878.032301,4891,0,0,,0.0,-0.64,0.23,0.72,0.14,0.2,0.59,0.0,-9.59,1.28,0.07,0.0,0.0,0.0,-9.66,1.49,0.72
1738246878.049458,4892,0,0,,0.0,-0.64,0.23,0.71,0.14,0.19,0.59,-0.01,-9.86,1.18,0.32,0.0,0.0,0.0,-9.67,1.5,0.6
1738246878.0642786,4893,0,0,,0.0,-0.65,0.24,0.71,0.14,0.21,0.57,-0.02,-9.8,1.31,0.2,0.0,0.0,0.0,-9.67,1.49,0.49
1738246878.082311,4894,0,0,,0.0,-0.65,0.24,0.71,0.14,0.19,0.56,-0.02,-9.63,1.29,-0.32,0.0,0.0,0.0,-9.68,1.49,0.43
1738246878.0997546,4895,0,0,,0.0,-0.65,0.24,0.7,0.14,0.2,0.59,-0.03,-9.9,1.2,0.17,0.0,0.0,0.0,-9.68,1.49,0.32
1738246878.1138077,4896,0,0,,0.0,-0.66,0.24,0.7,0.14,0.21,0.55,-0.04,-9.65,1.24,-0.26,0.0,0.0,0.0,-9.69,1.48,0.21
1738246878.1327848,4897,0,0,,0.0,-0.66,0.24,0.7,0.14,0.21,0.57,-0.04,-9.58,1.28,-0.61,0.0,0.0,0.0,-9.69,1.47,0.14
1738246878.1494,4898,0,0,,0.0,-0.66,0.24,0.69,0.14,0.24,0.63,-0.05,-9.91,1.15,-0.01,0.0,0.0,0.0,-9.69,1.46,0.01
1738246878.1642516,4899,0,0,,0.0,-0.67,0.25,0.69,0.14,0.25,0.61,-0.06,-9.78,1.18,0.0,0.0,0.0,0.0,-9.69,1.45,-0.1
1738246878.1824517,4900,0,0,,0.0,-0.67,0.25,0.68,0.14,0.27,0.66,-0.06,-9.7,1.23,-0.97,0.0,0.0,0.0,-9.69,1.44,-0.17
1738246878.1992545,4901,0,0,,0.0,-0.67,0.25,0.68,0.14,0.32,0.72,-0.07,-10.13,1.21,-0.01,0.0,0.0,0.0,-9.69,1.43,-0.31
1738246878.2143443,4902,0,0,,0.0,-0.68,0.25,0.67,0.14,0.31,0.72,-0.07,-9.82,1.44,-0.51,0.0,0.0,0.0,-9.69,1.41,-0.46
1738246878.2329478,4903,0,0,,0.0,-0.68,0.26,0.67,0.15,0.29,0.79,-0.06,-9.96,1.24,-0.8,0.0,0.0,0.0,-9.68,1.4,-0.54
1738246878.2499545,4904,0,0,,0.0,-0.69,0.26,0.67,0.15,0.34,0.85,-0.07,-10.47,0.83,-0.6,0.0,0.0,0.0,-9.68,1.39,-0.7
1738246878.2648203,4905,0,0,,0.0,-0.69,0.26,0.66,0.15,0.37,0.86,-0.09,-10.29,0.96,-1.07,0.0,0.0,0.0,-9.67,1.36,-0.88
1738246878.283685,4906,0,0,,0.0,-0.7,0.26,0.65,0.15,0.37,0.94,-0.1,-10.29,0.78,-1.66,0.0,0.0,0.0,-9.66,1.35,-0.97
1738246878.299753,4907,0,0,,0.0,-0.7,0.26,0.65,0.15,0.37,1.02,-0.14,-10.66,0.51,-0.9,0.0,0.0,0.0,-9.64,1.32,-1.17
1738246878.314617,4908,0,0,,0.0,-0.71,0.27,0.64,0.15,0.37,1.05,-0.15,-10.45,0.67,-1.5,0.0,0.0,0.0,-9.62,1.28,-1.38
1738246878.3326771,4909,0,0,,0.0,-0.71,0.27,0.63,0.15,0.39,1.15,-0.18,-10.41,0.58,-1.6,0.0,0.0,0.0,-9.6,1.26,-1.49
1738246878.349702,4910,0,0,,0.0,-0.72,0.27,0.62,0.15,0.43,1.22,-0.26,-10.77,0.54,-0.6,0.0,0.0,0.0,-9.57,1.2,-1.73
1738246878.365,4911,0,0,,0.0,-0.73,0.27,0.61,0.15,0.33,1.31,-0.3,-11.58,1.44,-0.38,0.0,0.0,0.0,-9.53,1.14,-1.98
1738246878.383099,4912,0,0,,0.0,-0.74,0.27,0.6,0.15,0.13,1.38,-0.32,-10.89,0.49,-1.1,0.0,0.0,0.0,-9.51,1.11,-2.11
1738246878.3998597,4913,0,0,,0.0,-0.74,0.27,0.6,0.15,0.18,1.56,-0.38,-10.72,0.2,-1.2,0.0,0.0,0.0,-9.45,1.03,-2.39
1738246878.4148545,4914,0,0,,0.0,-0.75,0.27,0.58,0.15,0.14,1.58,-0.43,-9.92,0.7,-2.07,0.0,0.0,0.0,-9.38,0.95,-2.69
1738246878.433203,4915,0,0,,0.0,-0.76,0.27,0.57,0.15,-0.02,1.69,-0.47,-10.21,0.34,-1.84,0.0,0.0,0.0,-9.29,0.86,-3.0
1738246878.4500585,4916,0,0,,0.0,-0.77,0.27,0.56,0.14,-0.1,1.8,-0.52,-9.86,-0.18,-1.53,0.0,0.0,0.0,-9.24,0.82,-3.16
1738246878.4652991,4917,0,0,,0.0,-0.78,0.27,0.55,0.14,-0.01,1.9,-0.53,-9.79,-1.2,-0.72,0.0,0.0,0.0,-9.12,0.72,-3.5
1738246878.4834738,4918,0,0,,0.0,-0.79,0.27,0.53,0.14,0.33,2.15,-0.57,-9.73,-1.05,-0.8,0.0,0.0,0.0,-8.97,0.59,-3.9
1738246878.5000582,4919,0,0,,0.0,-0.8,0.27,0.52,0.14,0.63,2.46,-0.53,-10.47,-0.4,0.03,0.0,0.0,0.0,-8.88,0.52,-4.12
1738246878.5153213,4920,0,0,,0.0,-0.81,0.28,0.5,0.14,0.75,2.62,-0.45,-11.55,-0.39,0.17,0.0,0.0,0.0,-8.65,0.38,-4.59
1738246878.53363,4921,0,0,,0.0,-0.82,0.29,0.47,0.15,0.98,2.91,-0.17,-13.23,1.42,0.16,0.0,0.0,0.0,-8.38,0.28,-5.08
1738246878.5502393,4922,0,0,,0.0,-0.83,0.29,0.45,0.14,1.07,3.24,0.05,-14.42,2.37,-2.0,0.0,0.0,0.0,-8.21,0.23,-5.34
1738246878.5653286,4923,0,0,,0.0,-0.84,0.3,0.43,0.14,0.82,3.39,0.08,-15.68,3.49,-4.21,0.0,0.0,0.0,-7.84,0.18,-5.88
1738246878.5838223,4924,0,0,,0.0,-0.86,0.3,0.4,0.12,-0.21,3.49,0.12,-14.96,3.46,-4.78,0.0,0.0,0.0,-7.42,0.25,-6.39
1738246878.600423,4925,0,0,,0.0,-0.86,0.3,0.39,0.11,-1.05,3.42,0.21,-13.69,1.23,-5.73,0.0,0.0,0.0,-7.21,0.34,-6.63
1738246878.615619,4926,0,0,,0.0,-0.88,0.31,0.36,0.1,-1.17,3.24,0.34,-14.26,0.72,-2.72,0.0,0.0,0.0,-6.8,0.53,-7.04
1738246878.633437,4927,0,0,,0.0,-0.88,0.31,0.35,0.08,-0.71,2.44,0.42,-13.68,-0.01,-1.32,0.0,0.0,0.0,-6.48,0.66,-7.32
1738246878.6505141,4928,0,0,,0.0,-0.88,0.31,0.34,0.08,-0.08,1.61,0.4,-9.37,0.12,-2.53,0.0,0.0,0.0,-6.36,0.7,-7.42
1738246878.6651947,4929,0,0,,0.0,-0.89,0.32,0.33,0.08,0.16,1.18,0.36,-6.61,1.03,-2.16,0.0,0.0,0.0,-6.22,0.71,-7.54
1738246878.6834,4930,0,0,,0.0,-0.89,0.32,0.33,0.08,0.11,0.26,0.32,-6.15,0.46,-2.05,0.0,0.0,0.0,-6.21,0.73,-7.54
1738246878.700432,4931,0,0,,0.0,-0.88,0.32,0.33,0.08,0.14,-0.67,0.18,-5.06,-0.35,-1.9,0.0,0.0,0.0,-6.26,0.74,-7.5
1738246878.715306,4932,0,0,,0.0,-0.88,0.32,0.34,0.08,0.17,-1.13,0.07,-4.0,-0.47,-1.8,0.0,0.0,0.0,-6.45,0.71,-7.34
1738246878.733311,4933,0,0,,0.0,-0.87,0.32,0.36,0.09,0.16,-2.0,-0.09,-3.92,-0.44,-1.81,0.0,0.0,0.0,-6.76,0.68,-7.06
1738246878.7506874,4934,0,0,,0.0,-0.87,0.31,0.37,0.1,0.11,-2.79,-0.19,-4.18,-0.05,-2.04,0.0,0.0,0.0,-6.95,0.66,-6.87
1738246878.7652972,4935,0,0,,0.0,-0.86,0.31,0.4,0.11,-0.04,-3.48,-0.28,-4.55,-0.48,-2.42,0.0,0.0,0.0,-7.38,0.62,-6.41
1738246878.7842972,4936,0,0,,0.0,-0.84,0.3,0.43,0.12,-0.09,-3.76,-0.33,-5.2,-0.4,-2.92,0.0,0.0,0.0,-7.85,0.59,-5.84
1738246878.8008363,4937,0,0,,0.0,-0.83,0.3,0.45,0.12,-0.34,-4.25,-0.39,-5.87,-0.01,-3.5,0.0,0.0,0.0,-8.08,0.58,-5.51
1738246878.815621,4938,0,0,,0.0,-0.81,0.28,0.49,0.14,-0.59,-4.61,-0.43,-7.23,0.15,-4.85,0.0,0.0,0.0,-8.54,0.57,-4.77
1738246878.833863,4939,0,0,,0.0,-0.79,0.27,0.53,0.14,-0.68,-4.73,-0.45,-7.79,0.22,-5.36,0.0,0.0,0.0,-8.95,0.55,-3.96
1738246878.8509474,4940,0,0,,0.0,-0.78,0.26,0.55,0.15,-0.94,-4.85,-0.47,-9.26,0.79,-6.64,0.0,0.0,0.0,-9.13,0.54,-3.53
1738246878.866017,4941,0,0,,0.0,-0.76,0.25,0.58,0.15,-1.22,-4.89,-0.44,-9.8,0.91,-7.25,0.0,0.0,0.0,-9.42,0.53,-2.64
1738246878.8844855,4942,0,0,,0.0,-0.73,0.23,0.62,0.16,-1.26,-4.9,-0.42,-10.17,0.85,-7.46,0.0,0.0,0.0,-9.63,0.51,-1.72
1738246878.9010513,4943,0,0,,0.0,-0.72,0.22,0.64,0.16,-1.16,-4.87,-0.39,-10.88,0.56,-7.51,0.0,0.0,0.0,-9.71,0.49,-1.26
1738246878.9170299,4944,0,0,,0.0,-0.69,0.2,0.67,0.17,-0.95,-4.79,-0.41,-12.01,-0.06,-6.61,0.0,0.0,0.0,-9.79,0.43,-0.34
1738246878.9340863,4945,0,0,,0.0,-0.66,0.19,0.71,0.17,-0.8,-4.71,-0.45,-12.43,0.1,-6.75,0.0,0.0,0.0,-9.78,0.34,0.54
1738246878.951285,4946,0,0,,0.0,-0.65,0.18,0.72,0.18,-0.5,-4.47,-0.45,-13.47,0.71,-6.6,0.0,0.0,0.0,-9.75,0.3,0.96
1738246878.966226,4947,0,0,,0.0,-0.62,0.17,0.75,0.19,-0.38,-4.08,-0.32,-13.43,1.33,-6.97,0.0,0.0,0.0,-9.64,0.22,1.75
1738246878.984027,4948,0,0,,0.0,-0.59,0.16,0.77,0.19,-0.43,-3.83,-0.23,-13.03,1.23,-6.79,0.0,0.0,0.0,-9.49,0.16,2.44
1738246879.0023355,4949,0,0,,0.0,-0.58,0.15,0.78,0.19,-0.47,-3.21,-0.11,-11.28,1.32,-6.89,0.0,0.0,0.0,-9.41,0.14,2.73
1738246879.016785,4950,0,0,,0.0,-0.56,0.14,0.79,0.19,-0.42,-2.58,-0.06,-10.92,-0.32,-6.09,0.0,0.0,0.0,-9.25,0.1,3.23
1738246879.0341198,4951,0,0,,0.0,-0.55,0.14,0.8,0.2,-0.2,-2.24,-0.07,-10.54,-0.56,-6.11,0.0,0.0,0.0,-9.12,0.09,3.59
1738246879.0515501,4952,0,0,,0.0,-0.54,0.14,0.81,0.2,0.31,-1.49,-0.05,-9.57,-0.43,-5.93,0.0,0.0,0.0,-9.07,0.09,3.72
1738246879.0672944,4953,0,0,,0.0,-0.53,0.14,0.81,0.2,0.48,-1.09,-0.02,-8.54,0.41,-5.32,0.0,0.0,0.0,-8.98,0.13,3.91
1738246879.0850968,4954,0,0,,0.0,-0.53,0.15,0.81,0.2,0.64,-0.32,0.09,-8.63,0.93,-5.06,0.0,0.0,0.0,-8.97,0.19,3.93
1738246879.1019738,4955,0,0,,0.0,-0.53,0.15,0.81,0.21,0.58,0.03,0.14,-8.93,1.34,-4.77,0.0,0.0,0.0,-8.97,0.23,3.93
1738246879.1173592,4956,0,0,,0.0,-0.53,0.15,0.81,0.2,0.24,0.64,0.2,-9.79,0.21,-2.94,0.0,0.0,0.0,-9.02,0.28,3.82
1738246879.134314,4957,0,0,,0.0,-0.54,0.16,0.8,0.2,0.08,0.86,0.18,-13.82,0.15,11.58,0.0,0.0,0.0,-9.08,0.31,3.67
1738246879.1519353,4958,0,0,,0.0,-0.54,0.16,0.8,0.2,0.2,0.27,0.01,-17.07,-2.21,14.72,0.0,0.0,0.0,-9.09,0.32,3.65
1738246879.167434,4959,0,0,,0.0,-0.54,0.16,0.8,0.2,0.21,-0.22,0.28,-7.39,-0.67,-5.36,0.0,0.0,0.0,-9.07,0.39,3.69
1738246879.1846201,4960,0,0,,0.0,-0.54,0.16,0.8,0.2,0.28,0.05,0.37,-8.49,0.04,-2.26,0.0,0.0,0.0,-9.08,0.46,3.65
1738246879.2020152,4961,0,0,,0.0,-0.54,0.16,0.8,0.2,0.02,0.52,0.2,-11.07,-0.41,1.91,0.0,0.0,0.0,-9.1,0.48,3.6
1738246879.2174475,4962,0,0,,0.0,-0.54,0.16,0.8,0.19,-0.37,0.54,0.31,-10.09,0.23,2.32,0.0,0.0,0.0,-9.14,0.51,3.51
1738246879.2347853,4963,0,0,,0.0,-0.55,0.16,0.8,0.19,-0.46,0.45,0.29,-8.99,0.33,2.91,0.0,0.0,0.0,-9.16,0.53,3.44
1738246879.2520237,4964,0,0,,0.0,-0.55,0.16,0.8,0.19,-0.31,0.31,0.3,-9.14,0.33,2.2,0.0,0.0,0.0,-9.17,0.55,3.41
1738246879.2677379,4965,0,0,,0.0,-0.55,0.16,0.8,0.18,-0.05,0.39,0.35,-9.22,1.07,3.39,0.0,0.0,0.0,-9.19,0.6,3.35
1738246879.2848105,4966,0,0,,0.0,-0.55,0.17,0.8,0.18,0.07,0.39,0.33,-9.24,0.5,3.14,0.0,0.0,0.0,-9.21,0.67,3.28
1738246879.3018866,4967,0,0,,0.0,-0.55,0.17,0.8,0.18,0.28,0.37,0.35,-8.92,0.22,2.81,0.0,0.0,0.0,-9.22,0.71,3.24
1738246879.317952,4968,0,0,,0.0,-0.55,0.18,0.79,0.18,0.4,0.52,0.37,-8.77,0.79,3.67,0.0,0.0,0.0,-9.24,0.8,3.15
1738246879.3345375,4969,0,0,,0.0,-0.56,0.18,0.79,0.18,0.31,0.59,0.38,-8.36,1.94,2.9,0.0,0.0,0.0,-9.27,0.88,3.04
1738246879.3523905,4970,0,0,,0.0,-0.56,0.18,0.79,0.17,0.01,0.65,0.41,-8.64,2.3,2.72,0.0,0.0,0.0,-9.29,0.92,2.98
1738246879.3675838,4971,0,0,,0.0,-0.57,0.18,0.79,0.17,-0.36,0.72,0.43,-9.5,1.92,2.06,0.0,0.0,0.0,-9.32,0.98,2.86
1738246879.3848019,4972,0,0,,0.0,-0.57,0.18,0.78,0.16,-0.51,0.73,0.42,-9.89,0.95,1.26,0.0,0.0,0.0,-9.35,1.03,2.74
1738246879.4020727,4973,0,0,,0.0,-0.57,0.18,0.78,0.16,-0.46,0.68,0.36,-10.19,0.97,0.65,0.0,0.0,0.0,-9.37,1.05,2.68
1738246879.4182637,4974,0,0,,0.0,-0.58,0.18,0.78,0.15,-0.27,0.63,0.3,-10.67,-0.93,0.95,0.0,0.0,0.0,-9.39,1.09,2.57
1738246879.4346457,4975,0,0,,0.0,-0.58,0.19,0.78,0.15,-0.1,0.6,0.28,-10.28,0.0,0.87,0.0,0.0,0.0,-9.42,1.14,2.47
1738246879.4527051,4976,0,0,,0.0,-0.59,0.19,0.77,0.15,0.24,0.56,0.23,-10.16,0.41,1.12,0.0,0.0,0.0,-9.43,1.16,2.41
1738246879.468288,4977,0,0,,0.0,-0.59,0.19,0.77,0.15,0.3,0.55,0.18,-9.95,1.13,1.73,0.0,0.0,0.0,-9.45,1.21,2.3
1738246879.4849174,4978,0,0,,0.0,-0.59,0.2,0.77,0.15,0.28,0.53,0.16,-9.15,1.34,1.6,0.0,0.0,0.0,-9.47,1.25,2.2
1738246879.502264,4979,0,0,,0.0,-0.59,0.2,0.77,0.15,0.29,0.55,0.1,-9.0,1.27,1.4,0.0,0.0,0.0,-9.48,1.27,2.15
1738246879.5187879,4980,0,0,,0.0,-0.6,0.2,0.76,0.15,0.45,0.57,0.06,-9.26,1.03,2.05,0.0,0.0,0.0,-9.5,1.29,2.03
1738246879.5352376,4981,0,0,,0.0,-0.6,0.21,0.76,0.15,0.56,0.55,0.04,-9.2,1.29,1.18,0.0,0.0,0.0,-9.52,1.32,1.92
1738246879.5524278,4982,0,0,,0.0,-0.6,0.21,0.75,0.15,0.63,0.54,0.03,-9.43,1.27,0.85,0.0,0.0,0.0,-9.53,1.34,1.86
1738246879.568281,4983,0,0,,0.0,-0.6,0.21,0.75,0.15,0.55,0.55,0.03,-9.93,0.92,1.45,0.0,0.0,0.0,-9.55,1.36,1.74
1738246879.5854928,4984,0,0,,0.0,-0.61,0.22,0.75,0.15,0.52,0.52,0.03,-9.55,0.91,0.54,0.0,0.0,0.0,-9.56,1.39,1.63
1738246879.6029594,4985,0,0,,0.0,-0.61,0.22,0.74,0.16,0.47,0.47,0.04,-9.51,0.97,0.26,0.0,0.0,0.0,-9.57,1.4,1.58
1738246879.619492,4986,0,0,,0.0,-0.61,0.23,0.74,0.16,0.46,0.48,0.05,-9.9,1.06,0.95,0.0,0.0,0.0,-9.58,1.42,1.48
1738246879.6353757,4987,0,0,,0.0,-0.61,0.23,0.74,0.16,0.47,0.45,0.05,-9.56,1.12,0.33,0.0,0.0,0.0,-9.59,1.44,1.38
1738246879.65243,4988,0,0,,0.0,-0.62,0.23,0.74,0.16,0.43,0.44,0.05,-9.77,1.11,0.55,0.0,0.0,0.0,-9.6,1.44,1.32
1738246879.66737,4989,0,0,,0.0,-0.62,0.24,0.73,0.16,0.36,0.46,0.03,-9.93,1.32,0.71,0.0,0.0,0.0,-9.62,1.45,1.2
1738246879.6845639,4990,0,0,,0.0,-0.62,0.24,0.73,0.16,0.31,0.44,0.03,-9.65,1.25,0.28,0.0,0.0,0.0,-9.63,1.45,1.09
1738246879.7022953,4991,0,0,,0.0,-0.62,0.24,0.73,0.16,0.23,0.46,0.02,-9.6,1.2,0.44,0.0,0.0,0.0,-9.64,1.45,1.04
1738246879.7169714,4992,0,0,,0.0,-0.63,0.24,0.72,0.16,0.17,0.49,0.0,-9.45,1.14,0.6,0.0,0.0,0.0,-9.65,1.45,0.93
1738246879.7344277,4993,0,0,,0.0,-0.63,0.24,0.72,0.16,0.15,0.5,0.0,-9.61,1.19,0.49,0.0,0.0,0.0,-9.66,1.45,0.83
1738246879.752953,4994,0,0,,0.0,-0.63,0.25,0.72,0.16,0.14,0.55,0.0,-9.54,1.28,0.32,0.0,0.0,0.0,-9.66,1.45,0.77
1738246879.7682815,4995,0,0,,0.0,-0.64,0.25,0.71,0.16,0.15,0.55,-0.01,-9.66,1.2,0.22,0.0,0.0,0.0,-9.67,1.45,0.66
1738246879.7854574,4996,0,0,,0.0,-0.64,0.25,0.71,0.16,0.16,0.53,-0.01,-9.65,1.16,-0.41,0.0,0.0,0.0,-9.68,1.45,0.56
1738246879.8033044,4997,0,0,,0.0,-0.64,0.25,0.71,0.16,0.2,0.56,-0.02,-9.9,1.05,0.27,0.0,0.0,0.0,-9.68,1.45,0.5
1738246879.8197255,4998,0,0,,0.0,-0.65,0.25,0.7,0.16,0.23,0.54,-0.03,-9.65,1.24,0.09,0.0,0.0,0.0,-9.69,1.45,0.39
1738246879.8356187,4999,0,0,,0.0,-0.65,0.25,0.7,0.16,0.22,0.53,-0.03,-9.49,1.35,-0.51,0.0,0.0,0.0,-9.69,1.44,0.28
1738246879.8533528,5000,0,0,,0.0,-0.65,0.26,0.7,0.16,0.19,0.58,-0.03,-9.65,1.34,0.05,0.0,0.0,0.0,-9.69,1.44,0.23
1738246879.8690717,5001,0,0,,0.0,-0.65,0.26,0.69,0.16,0.16,0.58,-0.04,-9.55,1.41,-0.15,0.0,0.0,0.0,-9.69,1.43,0.11
1738246879.885365,5002,0,0,,0.0,-0.66,0.26,0.69,0.16,0.14,0.59,-0.04,-9.58,1.19,-0.84,0.0,0.0,0.0,-9.7,1.42,0.0
1738246879.903883,5003,0,0,,0.0,-0.66,0.26,0.68,0.16,0.14,0.65,-0.05,-10.05,1.09,0.01,0.0,0.0,0.0,-9.7,1.42,-0.06
1738246879.918674,5004,0,0,,0.0,-0.67,0.26,0.68,0.16,0.18,0.68,-0.06,-9.74,1.1,-0.12,0.0,0.0,0.0,-9.7,1.41,-0.19
1738246879.9362352,5005,0,0,,0.0,-0.67,0.26,0.68,0.16,0.19,0.7,-0.05,-9.62,1.21,-0.93,0.0,0.0,0.0,-9.7,1.39,-0.33
1738246879.9535055,5006,0,0,,0.0,-0.67,0.26,0.67,0.16,0.15,0.79,-0.04,-10.2,0.99,-0.05,0.0,0.0,0.0,-9.69,1.39,-0.41
1738246879.9705229,5007,0,0,,0.0,-0.68,0.27,0.67,0.16,0.12,0.85,-0.04,-10.25,1.13,-0.51,0.0,0.0,0.0,-9.69,1.38,-0.57
1738246879.9858177,5008,0,0,,0.0,-0.68,0.27,0.66,0.16,0.1,0.89,-0.04,-10.32,0.9,-1.06,0.0,0.0,0.0,-9.68,1.37,-0.75
1738246880.0035398,5009,0,0,,0.0,-0.69,0.27,0.65,0.15,0.15,0.98,-0.05,-10.54,0.69,-0.79,0.0,0.0,0.0,-9.66,1.36,-0.94
1738246880.0205162,5010,0,0,,0.0,-0.69,0.27,0.65,0.15,0.28,1.03,-0.08,-10.54,0.67,-0.8,0.0,0.0,0.0,-9.65,1.35,-1.04
1738246880.0357704,5011,0,0,,0.0,-0.7,0.27,0.64,0.15,0.31,1.14,-0.11,-10.7,0.7,-0.99,0.0,0.0,0.0,-9.63,1.32,-1.25
1738246880.0536249,5012,0,0,,0.0,-0.71,0.28,0.63,0.15,0.3,1.21,-0.14,-10.96,0.54,-0.52,0.0,0.0,0.0,-9.62,1.31,-1.37
1738246880.0712945,5013,0,0,,0.0,-0.71,0.28,0.63,0.15,0.31,1.29,-0.2,-10.64,0.58,-0.96,0.0,0.0,0.0,-9.58,1.26,-1.61
1738246880.0863726,5014,0,0,,0.0,-0.72,0.28,0.62,0.15,0.16,1.47,-0.27,-11.76,1.13,-0.96,0.0,0.0,0.0,-9.54,1.21,-1.88
1738246880.1043584,5015,0,0,,0.0,-0.73,0.28,0.61,0.15,0.06,1.5,-0.3,-11.54,0.19,-0.34,0.0,0.0,0.0,-9.52,1.18,-2.02
1738246880.121091,5016,0,0,,0.0,-0.73,0.28,0.6,0.15,0.13,1.55,-0.34,-10.46,0.6,-1.75,0.0,0.0,0.0,-9.46,1.11,-2.3
1738246880.1364758,5017,0,0,,0.0,-0.74,0.28,0.59,0.15,0.09,1.64,-0.42,-10.13,0.78,-2.55,0.0,0.0,0.0,-9.39,1.03,-2.6
1738246880.1542432,5018,0,0,,0.0,-0.76,0.28,0.57,0.15,0.04,1.7,-0.46,-10.6,0.33,-1.04,0.0,0.0,0.0,-9.31,0.95,-2.91
1738246880.1717408,5019,0,0,,0.0,-0.76,0.28,0.57,0.15,-0.08,1.73,-0.54,-9.76,0.3,-1.52,0.0,0.0,0.0,-9.26,0.9,-3.07
1738246880.1871555,5020,0,0,,0.0,-0.77,0.28,0.55,0.14,0.09,1.91,-0.54,-9.71,-0.66,-1.26,0.0,0.0,0.0,-9.16,0.8,-3.4
1738246880.2045333,5021,0,0,,0.0,-0.78,0.28,0.54,0.14,0.24,2.02,-0.56,-9.73,-0.83,-0.5,0.0,0.0,0.0,-9.02,0.68,-3.77
1738246880.2216318,5022,0,0,,0.0,-0.79,0.28,0.53,0.15,0.58,2.25,-0.55,-9.71,-0.11,-0.46,0.0,0.0,0.0,-8.94,0.61,-3.97
1738246880.2384746,5023,0,0,,0.0,-0.8,0.28,0.5,0.15,0.74,2.53,-0.42,-10.36,0.0,-1.03,0.0,0.0,0.0,-8.75,0.47,-4.39
1738246880.2549016,5024,0,0,,0.0,-0.82,0.29,0.48,0.15,0.78,2.69,-0.32,-12.2,1.87,-0.88,0.0,0.0,0.0,-8.5,0.36,-4.86
1738246880.2729,5025,0,0,,0.0,-0.82,0.29,0.47,0.15,0.74,2.85,-0.03,-12.45,1.82,-1.14,0.0,0.0,0.0,-8.37,0.32,-5.09
1738246880.2889073,5026,0,0,,0.0,-0.83,0.3,0.44,0.14,0.58,3.12,0.06,-15.58,1.98,-3.21,0.0,0.0,0.0,-8.05,0.27,-5.58
1738246880.3054996,5027,0,0,,0.0,-0.85,0.3,0.42,0.13,0.45,3.19,0.11,-15.84,2.27,-4.35,0.0,0.0,0.0,-7.69,0.24,-6.07
1738246880.3235226,5028,0,0,,0.0,-0.86,0.31,0.39,0.12,0.07,3.06,0.15,-13.1,2.79,-4.94,0.0,0.0,0.0,-7.51,0.25,-6.29
1738246880.342228,5029,0,0,,0.0,-0.86,0.31,0.38,0.12,-0.62,2.78,0.19,-10.74,2.37,-3.69,0.0,0.0,0.0,-7.15,0.33,-6.7
1738246880.3574657,5030,0,0,,0.0,-0.87,0.31,0.36,0.1,-1.27,2.31,0.39,-11.6,-0.09,-1.57,0.0,0.0,0.0,-6.82,0.53,-7.02
1738246880.374219,5031,0,0,,0.0,-0.88,0.31,0.35,0.08,-1.26,1.91,0.4,-10.72,-1.13,-2.18,0.0,0.0,0.0,-6.58,0.73,-7.23
1738246880.3929513,5032,0,0,,0.0,-0.88,0.31,0.35,0.08,-0.6,1.14,0.33,-7.97,0.35,-2.83,0.0,0.0,0.0,-6.49,0.8,-7.29
1738246880.4077098,5033,0,0,,0.0,-0.88,0.32,0.35,0.07,-0.09,0.32,0.3,-7.02,-0.05,-2.58,0.0,0.0,0.0,-6.41,0.86,-7.36
1738246880.4248064,5034,0,0,,0.0,-0.88,0.32,0.35,0.08,0.04,-0.11,0.25,-6.55,-0.29,-2.39,0.0,0.0,0.0,-6.46,0.87,-7.32
1738246880.444471,5035,0,0,,0.0,-0.87,0.32,0.36,0.08,0.36,-0.92,0.07,-5.26,0.27,-2.65,0.0,0.0,0.0,-6.52,0.85,-7.27
1738246880.4585545,5036,0,0,,0.0,-0.87,0.32,0.36,0.09,0.33,-1.65,-0.06,-5.33,0.1,-3.07,0.0,0.0,0.0,-6.73,0.79,-7.08
1738246880.4754686,5037,0,0,,0.0,-0.86,0.32,0.38,0.09,0.28,-1.99,-0.12,-5.3,0.42,-3.23,0.0,0.0,0.0,-7.02,0.74,-6.8
1738246880.494424,5038,0,0,,0.0,-0.85,0.31,0.4,0.1,0.04,-2.62,-0.2,-5.26,0.44,-3.37,0.0,0.0,0.0,-7.37,0.71,-6.41
1738246880.5092783,5039,0,0,,0.0,-0.85,0.31,0.42,0.11,-0.27,-3.15,-0.26,-5.58,-0.11,-3.96,0.0,0.0,0.0,-7.57,0.71,-6.18
1738246880.5251157,5040,0,0,,0.0,-0.84,0.3,0.44,0.12,-0.39,-3.36,-0.3,-5.94,-0.09,-4.42,0.0,0.0,0.0,-7.97,0.71,-5.66
1738246880.545304,5041,0,0,,0.0,-0.82,0.29,0.48,0.12,-0.53,-3.74,-0.39,-6.4,-0.19,-4.74,0.0,0.0,0.0,-8.37,0.7,-5.04
1738246880.5594676,5042,0,0,,0.0,-0.81,0.28,0.49,0.13,-0.48,-4.07,-0.44,-7.11,0.0,-5.34,0.0,0.0,0.0,-8.57,0.69,-4.71
1738246880.5756292,5043,0,0,,0.0,-0.79,0.27,0.53,0.14,-0.41,-4.17,-0.44,-8.18,0.54,-6.2,0.0,0.0,0.0,-8.93,0.65,-3.99
1738246880.594662,5044,0,0,,0.0,-0.77,0.26,0.56,0.15,-0.48,-4.29,-0.41,-8.58,0.89,-6.32,0.0,0.0,0.0,-9.23,0.62,-3.22
1738246880.6095593,5045,0,0,,0.0,-0.76,0.26,0.58,0.15,-0.79,-4.33,-0.34,-9.4,1.38,-6.6,0.0,0.0,0.0,-9.36,0.61,-2.83
1738246880.625662,5046,0,0,,0.0,-0.74,0.24,0.61,0.16,-0.97,-4.33,-0.32,-9.66,1.32,-7.1,0.0,0.0,0.0,-9.57,0.61,-2.02
1738246880.6447697,5047,0,0,,0.0,-0.71,0.23,0.64,0.16,-1.15,-4.29,-0.27,-10.15,0.95,-7.28,0.0,0.0,0.0,-9.71,0.59,-1.21
1738246880.6599102,5048,0,0,,0.0,-0.7,0.22,0.66,0.16,-1.09,-4.22,-0.29,-10.69,0.11,-6.66,0.0,0.0,0.0,-9.75,0.57,-0.81
1738246880.6754649,5049,0,0,,0.0,-0.68,0.2,0.69,0.17,-0.94,-4.18,-0.32,-11.64,-0.3,-6.0,0.0,0.0,0.0,-9.79,0.51,-0.01
1738246880.6941233,5050,0,0,,0.0,-0.65,0.19,0.71,0.18,-0.47,-4.08,-0.41,-11.91,-0.29,-5.71,0.0,0.0,0.0,-9.76,0.43,0.75
1738246880.7093272,5051,0,0,,0.0,-0.64,0.19,0.72,0.18,-0.06,-3.92,-0.42,-12.15,0.17,-5.01,0.0,0.0,0.0,-9.73,0.39,1.12
1738246880.7254999,5052,0,0,,0.0,-0.61,0.18,0.75,0.19,0.06,-3.79,-0.39,-12.04,0.53,-4.96,0.0,0.0,0.0,-9.63,0.33,1.81
1738246880.74497,5053,0,0,,0.0,-0.59,0.17,0.76,0.2,0.22,-3.42,-0.28,-11.69,0.67,-4.87,0.0,0.0,0.0,-9.49,0.29,2.42
1738246880.7595706,5054,0,0,,0.0,-0.58,0.17,0.77,0.2,0.22,-2.93,-0.15,-11.53,0.54,-4.73,0.0,0.0,0.0,-9.42,0.28,2.69
1738246880.7757616,5055,0,0,,0.0,-0.56,0.17,0.79,0.21,0.17,-2.66,-0.1,-10.54,-0.32,-4.16,0.0,0.0,0.0,-9.28,0.28,3.14
1738246880.7945535,5056,0,0,,0.0,-0.54,0.16,0.8,0.21,0.22,-2.09,-0.05,-9.91,-0.15,-4.06,0.0,0.0,0.0,-9.15,0.29,3.49
1738246880.8093996,5057,0,0,,0.0,-0.54,0.16,0.8,0.21,0.4,-1.45,0.01,-9.14,0.45,-4.62,0.0,0.0,0.0,-9.1,0.3,3.62
1738246880.8254163,5058,0,0,,0.0,-0.53,0.17,0.8,0.22,0.4,-1.1,0.06,-9.12,0.26,-4.33,0.0,0.0,0.0,-9.04,0.34,3.78
1738246880.8442538,5059,0,0,,0.0,-0.53,0.17,0.8,0.22,0.35,-0.42,0.09,-8.95,0.47,-4.67,0.0,0.0,0.0,-9.02,0.38,3.82
1738246880.8588393,5060,0,0,,0.0,-0.53,0.17,0.8,0.22,0.15,0.3,0.13,-9.22,0.31,-5.34,0.0,0.0,0.0,-9.03,0.4,3.79
1738246880.875205,5061,0,0,,0.0,-0.53,0.17,0.8,0.22,0.01,0.64,0.14,-10.25,-0.05,-1.36,0.0,0.0,0.0,-9.08,0.41,3.67
1738246880.8941844,5062,0,0,,0.0,-0.53,0.17,0.8,0.22,0.2,0.47,-0.03,-16.25,-0.97,12.8,0.0,0.0,0.0,-9.1,0.42,3.62
1738246880.908643,5063,0,0,,0.0,-0.53,0.17,0.8,0.22,0.14,0.06,0.22,-9.06,-1.14,-0.88,0.0,0.0,0.0,-9.1,0.46,3.61
1738246880.9249015,5064,0,0,,0.0,-0.54,0.18,0.8,0.21,0.11,0.27,0.28,-8.56,0.27,-0.96,0.0,0.0,0.0,-9.13,0.51,3.54
1738246880.9444404,5065,0,0,,0.0,-0.54,0.18,0.79,0.21,0.03,0.66,0.17,-11.14,-0.25,3.1,0.0,0.0,0.0,-9.15,0.52,3.48
1738246880.9587398,5066,0,0,,0.0,-0.54,0.18,0.79,0.21,-0.35,0.67,0.28,-9.72,1.02,2.2,0.0,0.0,0.0,-9.19,0.55,3.36
1738246880.9751618,5067,0,0,,0.0,-0.55,0.18,0.79,0.2,-0.46,0.59,0.25,-9.09,1.21,1.91,0.0,0.0,0.0,-9.22,0.57,3.27
1738246880.9932177,5068,0,0,,0.0,-0.55,0.18,0.79,0.2,-0.45,0.49,0.29,-9.83,0.67,2.36,0.0,0.0,0.0,-9.24,0.58,3.22
1738246881.0083613,5069,0,0,,0.0,-0.56,0.18,0.79,0.19,-0.3,0.49,0.33,-9.28,1.17,1.51,0.0,0.0,0.0,-9.26,0.62,3.14
1738246881.0250006,5070,0,0,,0.0,-0.56,0.18,0.79,0.19,-0.22,0.47,0.33,-9.43,0.35,3.17,0.0,0.0,0.0,-9.29,0.66,3.06
1738246881.0441062,5071,0,0,,0.0,-0.56,0.18,0.79,0.19,0.01,0.42,0.35,-9.12,-0.69,2.86,0.0,0.0,0.0,-9.3,0.7,3.02
1738246881.05915,5072,0,0,,0.0,-0.56,0.18,0.79,0.18,0.2,0.49,0.38,-8.49,0.98,2.49,0.0,0.0,0.0,-9.32,0.77,2.94
1738246881.0751488,5073,0,0,,0.0,-0.57,0.19,0.78,0.18,0.12,0.56,0.39,-8.59,1.6,3.29,0.0,0.0,0.0,-9.34,0.85,2.83
1738246881.0934482,5074,0,0,,0.0,-0.57,0.19,0.78,0.18,-0.36,0.62,0.41,-9.18,2.14,2.1,0.0,0.0,0.0,-9.36,0.87,2.78
1738246881.1085477,5075,0,0,,0.0,-0.57,0.18,0.78,0.17,-0.8,0.69,0.4,-9.65,1.33,1.26,0.0,0.0,0.0,-9.38,0.91,2.67
1738246881.1254628,5076,0,0,,0.0,-0.58,0.18,0.78,0.16,-0.81,0.72,0.36,-9.88,0.89,1.01,0.0,0.0,0.0,-9.41,0.94,2.56
1738246881.1436274,5077,0,0,,0.0,-0.58,0.18,0.78,0.16,-0.45,0.66,0.31,-10.37,-0.52,1.1,0.0,0.0,0.0,-9.43,0.95,2.5
1738246881.159181,5078,0,0,,0.0,-0.59,0.18,0.77,0.15,0.06,0.56,0.24,-10.28,-0.07,0.5,0.0,0.0,0.0,-9.45,1.0,2.39
1738246881.1756332,5079,0,0,,0.0,-0.59,0.19,0.77,0.15,0.25,0.56,0.21,-10.49,0.12,1.34,0.0,0.0,0.0,-9.47,1.05,2.29
1738246881.1933222,5080,0,0,,0.0,-0.59,0.19,0.77,0.15,0.38,0.54,0.16,-10.04,0.82,1.4,0.0,0.0,0.0,-9.48,1.07,2.23
1738246881.2085695,5081,0,0,,0.0,-0.6,0.19,0.76,0.15,0.35,0.57,0.11,-9.34,1.14,1.59,0.0,0.0,0.0,-9.5,1.11,2.12
1738246881.225431,5082,0,0,,0.0,-0.6,0.2,0.76,0.15,0.38,0.59,0.08,-9.27,1.04,2.02,0.0,0.0,0.0,-9.53,1.13,2.0
1738246881.2432768,5083,0,0,,0.0,-0.6,0.2,0.76,0.15,0.51,0.62,0.03,-8.84,1.28,1.86,0.0,0.0,0.0,-9.54,1.15,1.94
1738246881.2587569,5084,0,0,,0.0,-0.6,0.21,0.75,0.16,0.61,0.65,0.0,-9.11,1.39,1.29,0.0,0.0,0.0,-9.56,1.17,1.81
1738246881.2755232,5085,0,0,,0.0,-0.61,0.21,0.75,0.16,0.61,0.65,-0.01,-9.7,1.11,1.73,0.0,0.0,0.0,-9.58,1.19,1.67
1738246881.2923825,5086,0,0,,0.0,-0.61,0.21,0.75,0.16,0.59,0.6,-0.01,-9.61,1.03,0.8,0.0,0.0,0.0,-9.59,1.2,1.61
1738246881.3083024,5087,0,0,,0.0,-0.61,0.22,0.74,0.16,0.47,0.62,0.0,-9.94,0.51,0.74,0.0,0.0,0.0,-9.61,1.21,1.49
1738246881.3245351,5088,0,0,,0.0,-0.62,0.22,0.74,0.16,0.44,0.61,0.0,-10.09,0.35,1.0,0.0,0.0,0.0,-9.63,1.22,1.36
1738246881.3432357,5089,0,0,,0.0,-0.62,0.22,0.73,0.16,0.44,0.56,0.0,-9.71,0.67,0.41,0.0,0.0,0.0,-9.63,1.23,1.31
1738246881.3587048,5090,0,0,,0.0,-0.62,0.23,0.73,0.17,0.46,0.57,0.01,-9.67,0.78,0.14,0.0,0.0,0.0,-9.65,1.24,1.19
1738246881.3750992,5091,0,0,,0.0,-0.63,0.23,0.73,0.17,0.46,0.58,0.01,-10.0,0.87,0.91,0.0,0.0,0.0,-9.66,1.25,1.07
1738246881.3926983,5092,0,0,,0.0,-0.63,0.23,0.72,0.17,0.39,0.54,0.01,-9.6,1.13,0.25,0.0,0.0,0.0,-9.67,1.26,1.02
1738246881.4084694,5093,0,0,,0.0,-0.63,0.24,0.72,0.17,0.25,0.54,0.02,-9.89,1.12,0.81,0.0,0.0,0.0,-9.68,1.27,0.91
1738246881.4249904,5094,0,0,,0.0,-0.63,0.24,0.72,0.17,0.19,0.54,0.02,-9.89,1.08,0.53,0.0,0.0,0.0,-9.68,1.27,0.81
1738246881.443575,5095,0,0,,0.0,-0.64,0.24,0.71,0.17,0.08,0.52,0.03,-9.57,1.08,0.06,0.0,0.0,0.0,-9.69,1.27,0.75
1738246881.4589174,5096,0,0,,0.0,-0.64,0.24,0.71,0.17,0.01,0.57,0.03,-9.75,1.12,0.47,0.0,0.0,0.0,-9.7,1.28,0.64
1738246881.4756129,5097,0,0,,0.0,-0.64,0.24,0.71,0.16,-0.0,0.57,0.03,-9.87,1.04,0.58,0.0,0.0,0.0,-9.7,1.29,0.54
1738246881.492989,5098,0,0,,0.0,-0.65,0.24,0.71,0.16,-0.01,0.55,0.03,-9.51,0.99,-0.22,0.0,0.0,0.0,-9.7,1.29,0.48
1738246881.5090878,5099,0,0,,0.0,-0.65,0.24,0.7,0.16,0.05,0.6,0.02,-9.97,0.79,0.2,0.0,0.0,0.0,-9.71,1.29,0.37
1738246881.525266,5100,0,0,,0.0,-0.65,0.25,0.7,0.16,0.1,0.6,0.01,-9.96,1.05,0.16,0.0,0.0,0.0,-9.71,1.29,0.26
1738246881.5438185,5101,0,0,,0.0,-0.66,0.25,0.69,0.16,0.14,0.57,0.01,-9.58,1.11,-0.36,0.0,0.0,0.0,-9.71,1.29,0.2
1738246881.5595384,5102,0,0,,0.0,-0.66,0.25,0.69,0.16,0.15,0.6,0.0,-9.86,1.07,-0.17,0.0,0.0,0.0,-9.72,1.29,0.08
1738246881.575345,5103,0,0,,0.0,-0.66,0.25,0.69,0.16,0.15,0.59,-0.0,-9.77,1.17,-0.29,0.0,0.0,0.0,-9.72,1.29,-0.02
1738246881.592948,5104,0,0,,0.0,-0.66,0.25,0.69,0.16,0.13,0.59,-0.01,-9.74,1.03,-0.58,0.0,0.0,0.0,-9.72,1.29,-0.09
1738246881.609201,5105,0,0,,0.0,-0.67,0.25,0.68,0.16,0.11,0.65,-0.01,-9.92,0.89,-0.23,0.0,0.0,0.0,-9.71,1.29,-0.21
1738246881.6252406,5106,0,0,,0.0,-0.67,0.25,0.68,0.16,0.11,0.67,-0.02,-9.84,1.1,-0.35,0.0,0.0,0.0,-9.71,1.28,-0.34
1738246881.643447,5107,0,0,,0.0,-0.68,0.26,0.67,0.16,0.12,0.71,-0.02,-9.79,1.06,-0.69,0.0,0.0,0.0,-9.71,1.28,-0.41
1738246881.6591907,5108,0,0,,0.0,-0.68,0.26,0.67,0.16,0.2,0.82,-0.02,-10.22,1.06,-0.53,0.0,0.0,0.0,-9.7,1.27,-0.56
1738246881.6755962,5109,0,0,,0.0,-0.69,0.26,0.66,0.16,0.23,0.84,-0.03,-10.26,0.91,-0.21,0.0,0.0,0.0,-9.69,1.26,-0.73
1738246881.6934817,5110,0,0,,0.0,-0.69,0.26,0.66,0.16,0.29,0.92,-0.03,-10.6,0.59,-0.81,0.0,0.0,0.0,-9.69,1.26,-0.82
1738246881.709523,5111,0,0,,0.0,-0.69,0.27,0.65,0.16,0.34,1.01,-0.06,-10.68,0.53,-0.65,0.0,0.0,0.0,-9.67,1.24,-1.01
1738246881.7257295,5112,0,0,,0.0,-0.7,0.27,0.64,0.16,0.34,1.04,-0.09,-10.52,0.55,-0.98,0.0,0.0,0.0,-9.65,1.22,-1.22
1738246881.7438474,5113,0,0,,0.0,-0.71,0.27,0.63,0.16,0.32,1.11,-0.1,-10.46,0.53,-1.31,0.0,0.0,0.0,-9.64,1.2,-1.32
1738246881.759976,5114,0,0,,0.0,-0.71,0.27,0.63,0.16,0.29,1.22,-0.16,-10.35,0.58,-1.24,0.0,0.0,0.0,-9.61,1.17,-1.55
1738246881.775635,5115,0,0,,0.0,-0.72,0.27,0.62,0.16,0.29,1.24,-0.19,-10.16,0.61,-1.36,0.0,0.0,0.0,-9.57,1.12,-1.79
1738246881.793127,5116,0,0,,0.0,-0.72,0.28,0.61,0.16,0.32,1.3,-0.25,-10.13,1.61,-2.4,0.0,0.0,0.0,-9.55,1.09,-1.92
1738246881.8102317,5117,0,0,,0.0,-0.73,0.28,0.6,0.16,0.17,1.46,-0.35,-11.84,1.72,-0.23,0.0,0.0,0.0,-9.5,1.02,-2.18
1738246881.8258667,5118,0,0,,0.0,-0.74,0.28,0.59,0.16,0.07,1.42,-0.38,-9.17,1.13,-2.96,0.0,0.0,0.0,-9.44,0.95,-2.44
1738246881.8444037,5119,0,0,,0.0,-0.75,0.28,0.58,0.16,0.16,1.54,-0.38,-9.94,0.5,-2.31,0.0,0.0,0.0,-9.41,0.91,-2.59
1738246881.8602765,5120,0,0,,0.0,-0.76,0.28,0.57,0.15,0.14,1.63,-0.5,-9.77,0.55,-1.81,0.0,0.0,0.0,-9.33,0.81,-2.88
1738246881.8760073,5121,0,0,,0.0,-0.77,0.28,0.56,0.15,0.13,1.66,-0.51,-10.13,-0.18,-1.82,0.0,0.0,0.0,-9.24,0.71,-3.19
1738246881.8938103,5122,0,0,,0.0,-0.78,0.28,0.55,0.15,0.07,1.77,-0.55,-9.88,-0.34,-2.16,0.0,0.0,0.0,-9.19,0.66,-3.35
1738246881.9100432,5123,0,0,,0.0,-0.78,0.28,0.54,0.15,0.29,1.97,-0.55,-10.12,-1.18,-0.82,0.0,0.0,0.0,-9.06,0.55,-3.69
1738246881.926077,5124,0,0,,0.0,-0.79,0.28,0.52,0.15,0.44,2.04,-0.56,-9.66,-0.27,-0.71,0.0,0.0,0.0,-8.91,0.42,-4.06
1738246881.9445817,5125,0,0,,0.0,-0.81,0.28,0.5,0.16,0.68,2.27,-0.46,-9.94,-0.03,-0.64,0.0,0.0,0.0,-8.82,0.35,-4.26
1738246881.960416,5126,0,0,,0.0,-0.81,0.28,0.49,0.16,0.74,2.51,-0.27,-10.69,1.15,-0.58,0.0,0.0,0.0,-8.61,0.23,-4.67
1738246881.9764805,5127,0,0,,0.0,-0.82,0.29,0.46,0.15,0.7,2.61,-0.11,-12.5,1.97,-1.81,0.0,0.0,0.0,-8.36,0.17,-5.12
1738246881.9941509,5128,0,0,,0.0,-0.84,0.3,0.44,0.15,0.45,2.94,0.06,-14.19,1.76,-1.82,0.0,0.0,0.0,-8.21,0.15,-5.35
1738246882.0104558,5129,0,0,,0.0,-0.84,0.3,0.43,0.14,0.29,3.18,0.07,-15.91,2.14,-3.74,0.0,0.0,0.0,-7.87,0.12,-5.84
1738246882.0265646,5130,0,0,,0.0,-0.85,0.3,0.4,0.13,0.06,3.11,0.09,-13.35,2.32,-4.66,0.0,0.0,0.0,-7.51,0.14,-6.3
1738246882.0451193,5131,0,0,,0.0,-0.86,0.31,0.38,0.12,-0.52,2.92,0.11,-10.94,2.34,-4.64,0.0,0.0,0.0,-7.33,0.18,-6.51
1738246882.0606892,5132,0,0,,0.0,-0.87,0.31,0.37,0.11,-1.27,2.68,0.23,-11.58,1.35,-3.95,0.0,0.0,0.0,-6.97,0.35,-6.88
1738246882.0764954,5133,0,0,,0.0,-0.88,0.31,0.36,0.09,-1.34,2.39,0.33,-11.67,-0.77,-2.83,0.0,0.0,0.0,-6.66,0.57,-7.16
1738246882.0946288,5134,0,0,,0.0,-0.88,0.31,0.34,0.08,-0.89,1.7,0.28,-10.34,-0.56,-3.41,0.0,0.0,0.0,-6.54,0.65,-7.27
1738246882.1107311,5135,0,0,,0.0,-0.88,0.31,0.34,0.08,-0.12,1.01,0.23,-7.82,0.89,-3.44,0.0,0.0,0.0,-6.37,0.72,-7.41
1738246882.1266983,5136,0,0,,0.0,-0.89,0.31,0.34,0.08,0.01,0.63,0.23,-6.77,0.14,-3.05,0.0,0.0,0.0,-6.31,0.74,-7.46
1738246882.145026,5137,0,0,,0.0,-0.88,0.31,0.34,0.08,0.19,-0.15,0.18,-6.33,-0.22,-3.05,0.0,0.0,0.0,-6.32,0.74,-7.46
1738246882.161075,5138,0,0,,0.0,-0.88,0.31,0.34,0.08,0.29,-0.89,0.04,-5.2,0.18,-3.17,0.0,0.0,0.0,-6.42,0.71,-7.37
1738246882.1762807,5139,0,0,,0.0,-0.88,0.31,0.35,0.09,0.2,-1.27,-0.02,-4.97,-0.23,-3.07,0.0,0.0,0.0,-6.62,0.68,-7.19
1738246882.19505,5140,0,0,,0.0,-0.87,0.31,0.37,0.09,-0.01,-1.93,-0.13,-4.96,-0.18,-3.06,0.0,0.0,0.0,-6.75,0.67,-7.07
1738246882.2110934,5141,0,0,,0.0,-0.87,0.31,0.38,0.1,-0.15,-2.54,-0.21,-5.04,-0.35,-3.15,0.0,0.0,0.0,-7.08,0.66,-6.75
1738246882.2263615,5142,0,0,,0.0,-0.86,0.3,0.41,0.1,-0.2,-2.81,-0.25,-5.25,-0.47,-3.47,0.0,0.0,0.0,-7.45,0.65,-6.33
1738246882.2448633,5143,0,0,,0.0,-0.84,0.29,0.44,0.11,-0.3,-3.3,-0.32,-5.6,-0.6,-3.36,0.0,0.0,0.0,-7.65,0.65,-6.08
1738246882.26143,5144,0,0,,0.0,-0.84,0.29,0.45,0.12,-0.37,-3.74,-0.41,-6.1,-0.23,-3.91,0.0,0.0,0.0,-8.07,0.63,-5.53
1738246882.2767045,5145,0,0,,0.0,-0.82,0.28,0.48,0.13,-0.41,-3.93,-0.43,-6.79,-0.29,-4.42,0.0,0.0,0.0,-8.48,0.6,-4.88
1738246882.2951546,5146,0,0,,0.0,-0.8,0.27,0.52,0.14,-0.37,-4.24,-0.44,-7.53,-0.02,-5.1,0.0,0.0,0.0,-8.67,0.58,-4.52
1738246882.3110592,5147,0,0,,0.0,-0.79,0.26,0.54,0.14,-0.52,-4.43,-0.41,-8.46,0.62,-5.55,0.0,0.0,0.0,-9.03,0.54,-3.76
1738246882.3271756,5148,0,0,,0.0,-0.77,0.25,0.57,0.15,-0.73,-4.49,-0.38,-9.79,1.19,-6.38,0.0,0.0,0.0,-9.33,0.53,-2.95
1738246882.345158,5149,0,0,,0.0,-0.74,0.23,0.61,0.15,-1.19,-4.53,-0.34,-10.03,1.27,-6.63,0.0,0.0,0.0,-9.45,0.53,-2.54
1738246882.3616328,5150,0,0,,0.0,-0.73,0.22,0.62,0.15,-1.46,-4.51,-0.34,-10.67,0.97,-7.14,0.0,0.0,0.0,-9.64,0.53,-1.68
1738246882.3769648,5151,0,0,,0.0,-0.71,0.21,0.66,0.16,-1.45,-4.48,-0.35,-11.34,0.33,-6.82,0.0,0.0,0.0,-9.75,0.5,-0.83
1738246882.394914,5152,0,0,,0.0,-0.68,0.19,0.69,0.16,-1.11,-4.41,-0.4,-11.92,-0.33,-6.32,0.0,0.0,0.0,-9.78,0.46,-0.41
1738246882.4114754,5153,0,0,,0.0,-0.67,0.18,0.7,0.16,-0.53,-4.29,-0.46,-12.37,-0.63,-5.83,0.0,0.0,0.0,-9.79,0.38,0.41
1738246882.426771,5154,0,0,,0.0,-0.64,0.17,0.73,0.17,-0.19,-4.21,-0.46,-12.63,0.24,-6.09,0.0,0.0,0.0,-9.72,0.3,1.19
1738246882.4455075,5155,0,0,,0.0,-0.61,0.17,0.75,0.18,0.23,-3.93,-0.36,-12.34,0.21,-5.89,0.0,0.0,0.0,-9.67,0.26,1.56
1738246882.4617617,5156,0,0,,0.0,-0.6,0.16,0.76,0.19,0.39,-3.49,-0.28,-11.67,0.39,-5.53,0.0,0.0,0.0,-9.54,0.22,2.23
1738246882.4766228,5157,0,0,,0.0,-0.58,0.16,0.78,0.2,0.38,-3.24,-0.24,-11.56,0.2,-5.05,0.0,0.0,0.0,-9.39,0.2,2.8
1738246882.495299,5158,0,0,,0.0,-0.56,0.16,0.79,0.2,0.26,-2.71,-0.21,-11.23,0.11,-4.93,0.0,0.0,0.0,-9.31,0.19,3.04
1738246882.5117822,5159,0,0,,0.0,-0.55,0.15,0.8,0.21,0.15,-2.13,-0.15,-10.01,0.53,-4.69,0.0,0.0,0.0,-9.17,0.17,3.45
1738246882.5271866,5160,0,0,,0.0,-0.54,0.15,0.8,0.21,0.08,-1.81,-0.1,-9.21,1.33,-4.5,0.0,0.0,0.0,-9.06,0.16,3.74
1738246882.5452702,5161,0,0,,0.0,-0.53,0.15,0.81,0.21,-0.16,-1.11,0.04,-8.86,1.23,-4.33,0.0,0.0,0.0,-9.02,0.15,3.83
1738246882.561662,5162,0,0,,0.0,-0.53,0.14,0.81,0.21,-0.36,-0.42,0.1,-9.01,0.65,-4.36,0.0,0.0,0.0,-8.97,0.15,3.94
1738246882.576927,5163,0,0,,0.0,-0.53,0.14,0.81,0.21,-0.37,-0.08,0.13,-8.98,0.0,-4.42,0.0,0.0,0.0,-8.98,0.14,3.92
1738246882.5956566,5164,0,0,,0.0,-0.53,0.14,0.81,0.2,-0.27,0.53,0.17,-9.15,-0.25,-4.25,0.0,0.0,0.0,-9.0,0.15,3.88
1738246882.6113415,5165,0,0,,0.0,-0.54,0.14,0.81,0.2,-0.07,0.95,0.16,-10.21,-0.15,0.31,0.0,0.0,0.0,-9.06,0.17,3.73
1738246882.6264853,5166,0,0,,0.0,-0.54,0.15,0.8,0.2,0.06,0.94,0.15,-15.45,-1.25,18.85,0.0,0.0,0.0,-9.11,0.2,3.6
1738246882.6454964,5167,0,0,,0.0,-0.54,0.15,0.8,0.2,0.56,-0.16,0.05,-14.18,-2.94,9.61,0.0,0.0,0.0,-9.11,0.22,3.62
1738246882.661883,5168,0,0,,0.0,-0.54,0.16,0.8,0.2,0.89,-0.02,0.36,-6.95,-1.62,-4.63,0.0,0.0,0.0,-9.09,0.33,3.64
1738246882.6769743,5169,0,0,,0.0,-0.54,0.17,0.8,0.2,0.88,0.41,0.31,-11.02,0.97,3.64,0.0,0.0,0.0,-9.13,0.43,3.54
1738246882.6949346,5170,0,0,,0.0,-0.55,0.17,0.8,0.2,0.0,0.72,0.23,-11.43,0.62,3.45,0.0,0.0,0.0,-9.17,0.46,3.42
1738246882.7115982,5171,0,0,,0.0,-0.55,0.16,0.8,0.2,-0.76,0.62,0.33,-8.85,0.33,2.49,0.0,0.0,0.0,-9.19,0.46,3.37
1738246882.7267487,5172,0,0,,0.0,-0.55,0.16,0.79,0.19,-0.77,0.59,0.32,-8.71,-0.17,2.57,0.0,0.0,0.0,-9.23,0.48,3.26
1738246882.7454019,5173,0,0,,0.0,-0.56,0.16,0.79,0.18,-0.31,0.69,0.35,-9.58,0.33,2.57,0.0,0.0,0.0,-9.27,0.53,3.14
1738246882.7617412,5174,0,0,,0.0,-0.56,0.17,0.79,0.18,0.03,0.68,0.34,-8.74,1.75,2.82,0.0,0.0,0.0,-9.29,0.56,3.08
1738246882.7767696,5175,0,0,,0.0,-0.57,0.17,0.79,0.18,0.19,0.67,0.36,-9.36,0.9,2.59,0.0,0.0,0.0,-9.32,0.64,2.96
1738246882.7950945,5176,0,0,,0.0,-0.57,0.18,0.78,0.18,0.42,0.66,0.44,-9.32,0.88,2.44,0.0,0.0,0.0,-9.35,0.75,2.83
1738246882.8121612,5177,0,0,,0.0,-0.57,0.18,0.78,0.18,0.25,0.66,0.43,-9.07,1.98,1.79,0.0,0.0,0.0,-9.37,0.79,2.77
1738246882.8271768,5178,0,0,,0.0,-0.58,0.18,0.78,0.17,0.02,0.67,0.43,-9.94,1.52,2.34,0.0,0.0,0.0,-9.39,0.86,2.65
1738246882.8453207,5179,0,0,,0.0,-0.58,0.18,0.78,0.16,-0.41,0.64,0.41,-9.79,1.18,2.09,0.0,0.0,0.0,-9.42,0.92,2.54
1738246882.8624082,5180,0,0,,0.0,-0.58,0.18,0.78,0.16,-0.47,0.64,0.38,-9.5,0.98,0.93,0.0,0.0,0.0,-9.43,0.94,2.49
1738246882.8770335,5181,0,0,,0.0,-0.59,0.18,0.77,0.15,-0.42,0.65,0.36,-10.4,0.19,1.57,0.0,0.0,0.0,-9.46,0.98,2.38
1738246882.8953063,5182,0,0,,0.0,-0.59,0.18,0.77,0.15,-0.34,0.6,0.29,-10.29,-0.33,1.32,0.0,0.0,0.0,-9.48,1.02,2.28
1738246882.9122095,5183,0,0,,0.0,-0.59,0.18,0.77,0.15,-0.03,0.58,0.25,-10.09,-0.17,0.78,0.0,0.0,0.0,-9.49,1.04,2.22
1738246882.9272034,5184,0,0,,0.0,-0.6,0.19,0.77,0.15,0.11,0.6,0.22,-10.12,0.41,1.87,0.0,0.0,0.0,-9.51,1.09,2.11
1738246882.9448638,5185,0,0,,0.0,-0.6,0.19,0.76,0.15,0.24,0.59,0.17,-9.92,0.7,1.72,0.0,0.0,0.0,-9.53,1.12,1.99
1738246882.962142,5186,0,0,,0.0,-0.6,0.19,0.76,0.15,0.29,0.62,0.12,-9.18,1.2,1.3,0.0,0.0,0.0,-9.54,1.14,1.93
1738246882.976833,5187,0,0,,0.0,-0.61,0.2,0.76,0.15,0.33,0.65,0.09,-9.33,1.14,1.96,0.0,0.0,0.0,-9.56,1.17,1.81
1738246882.995213,5188,0,0,,0.0,-0.61,0.2,0.75,0.15,0.43,0.64,0.06,-9.25,1.16,1.33,0.0,0.0,0.0,-9.58,1.2,1.68
1738246883.0118484,5189,0,0,,0.0,-0.61,0.2,0.75,0.15,0.52,0.63,0.05,-9.43,1.05,0.99,0.0,0.0,0.0,-9.59,1.21,1.61
1738246883.0276346,5190,0,0,,0.0,-0.62,0.21,0.74,0.15,0.54,0.64,0.05,-9.82,0.73,1.03,0.0,0.0,0.0,-9.61,1.23,1.48
1738246883.0452652,5191,0,0,,0.0,-0.62,0.21,0.74,0.15,0.51,0.62,0.05,-9.74,0.81,0.55,0.0,0.0,0.0,-9.62,1.26,1.36
1738246883.0623076,5192,0,0,,0.0,-0.62,0.22,0.74,0.15,0.46,0.61,0.05,-9.83,0.62,0.06,0.0,0.0,0.0,-9.63,1.27,1.29
1738246883.0771894,5193,0,0,,0.0,-0.63,0.22,0.73,0.15,0.45,0.62,0.06,-10.05,0.41,0.73,0.0,0.0,0.0,-9.64,1.29,1.17
1738246883.0952504,5194,0,0,,0.0,-0.63,0.22,0.73,0.15,0.43,0.56,0.06,-9.83,1.02,0.25,0.0,0.0,0.0,-9.66,1.31,1.05
1738246883.112252,5195,0,0,,0.0,-0.63,0.23,0.73,0.15,0.35,0.56,0.06,-9.8,1.09,0.02,0.0,0.0,0.0,-9.66,1.32,1.0
1738246883.1273956,5196,0,0,,0.0,-0.63,0.23,0.72,0.15,0.31,0.55,0.06,-9.9,1.3,0.64,0.0,0.0,0.0,-9.67,1.33,0.89
1738246883.1451013,5197,0,0,,0.0,-0.64,0.23,0.72,0.15,0.16,0.48,0.06,-9.71,1.31,0.13,0.0,0.0,0.0,-9.67,1.35,0.8
1738246883.1626394,5198,0,0,,0.0,-0.64,0.23,0.72,0.15,0.07,0.5,0.06,-9.76,1.18,0.11,0.0,0.0,0.0,-9.68,1.35,0.75
1738246883.1775157,5199,0,0,,0.0,-0.64,0.23,0.71,0.15,0.02,0.46,0.05,-9.89,1.1,0.66,0.0,0.0,0.0,-9.68,1.36,0.66
1738246883.1959164,5200,0,0,,0.0,-0.64,0.23,0.71,0.15,0.02,0.45,0.05,-9.62,1.17,0.22,0.0,0.0,0.0,-9.69,1.37,0.57
1738246883.2131987,5201,0,0,,0.0,-0.65,0.23,0.71,0.15,0.06,0.51,0.04,-9.44,1.12,-0.25,0.0,0.0,0.0,-9.69,1.38,0.52
1738246883.2279603,5202,0,0,,0.0,-0.65,0.24,0.71,0.15,0.13,0.51,0.03,-9.62,1.19,0.28,0.0,0.0,0.0,-9.69,1.38,0.42
1738246883.2452466,5203,0,0,,0.0,-0.65,0.24,0.7,0.15,0.14,0.51,0.03,-9.55,1.21,-0.15,0.0,0.0,0.0,-9.7,1.39,0.31
1738246883.263323,5204,0,0,,0.0,-0.66,0.24,0.7,0.15,0.14,0.56,0.02,-9.6,1.12,-0.43,0.0,0.0,0.0,-9.7,1.39,0.26
1738246883.2777686,5205,0,0,,0.0,-0.66,0.24,0.7,0.15,0.16,0.55,0.01,-9.73,1.24,-0.2,0.0,0.0,0.0,-9.7,1.39,0.15
1738246883.2960267,5206,0,0,,0.0,-0.66,0.24,0.69,0.15,0.14,0.56,0.01,-9.51,1.36,-0.52,0.0,0.0,0.0,-9.7,1.39,0.04
1738246883.3130105,5207,0,0,,0.0,-0.66,0.24,0.69,0.15,0.15,0.59,0.0,-9.69,1.1,-0.32,0.0,0.0,0.0,-9.7,1.39,-0.01
1738246883.3275185,5208,0,0,,0.0,-0.67,0.25,0.69,0.15,0.18,0.58,-0.01,-9.8,1.12,-0.4,0.0,0.0,0.0,-9.7,1.39,-0.12
1738246883.346283,5209,0,0,,0.0,-0.67,0.25,0.68,0.15,0.19,0.61,-0.01,-9.74,1.12,-0.67,0.0,0.0,0.0,-9.7,1.38,-0.25
1738246883.3639486,5210,0,0,,0.0,-0.67,0.25,0.68,0.15,0.21,0.66,-0.02,-9.66,1.14,-0.72,0.0,0.0,0.0,-9.7,1.38,-0.32
1738246883.377718,5211,0,0,,0.0,-0.68,0.25,0.67,0.15,0.24,0.7,-0.02,-9.63,1.31,-0.78,0.0,0.0,0.0,-9.69,1.37,-0.45
1738246883.3958364,5212,0,0,,0.0,-0.68,0.25,0.67,0.15,0.23,0.75,-0.02,-9.94,1.14,-0.42,0.0,0.0,0.0,-9.69,1.36,-0.6
1738246883.4134307,5213,0,0,,0.0,-0.69,0.26,0.67,0.15,0.27,0.82,-0.02,-10.28,0.91,-0.28,0.0,0.0,0.0,-9.68,1.36,-0.68
1738246883.4287243,5214,0,0,,0.0,-0.69,0.26,0.66,0.15,0.33,0.9,-0.03,-9.98,1.02,-0.88,0.0,0.0,0.0,-9.67,1.35,-0.85
1738246883.4463356,5215,0,0,,0.0,-0.7,0.26,0.65,0.15,0.34,0.97,-0.04,-10.22,0.85,-0.79,0.0,0.0,0.0,-9.65,1.34,-1.05
1738246883.4638648,5216,0,0,,0.0,-0.7,0.26,0.65,0.15,0.37,1.08,-0.07,-10.58,0.69,-0.46,0.0,0.0,0.0,-9.64,1.32,-1.16
1738246883.4786725,5217,0,0,,0.0,-0.71,0.27,0.64,0.15,0.37,1.15,-0.1,-10.24,1.02,-1.62,0.0,0.0,0.0,-9.62,1.3,-1.38
1738246883.496161,5218,0,0,,0.0,-0.71,0.27,0.63,0.15,0.34,1.2,-0.11,-10.38,0.88,-1.71,0.0,0.0,0.0,-9.58,1.27,-1.61
1738246883.5144153,5219,0,0,,0.0,-0.72,0.27,0.62,0.15,0.34,1.28,-0.17,-10.79,0.39,-0.79,0.0,0.0,0.0,-9.56,1.24,-1.74
1738246883.5292814,5220,0,0,,0.0,-0.73,0.27,0.61,0.15,0.35,1.27,-0.23,-10.35,0.97,-1.99,0.0,0.0,0.0,-9.52,1.19,-1.98
1738246883.54685,5221,0,0,,0.0,-0.73,0.27,0.6,0.15,0.25,1.37,-0.27,-10.59,1.96,-2.62,0.0,0.0,0.0,-9.47,1.13,-2.24
1738246883.5642328,5222,0,0,,0.0,-0.74,0.27,0.6,0.15,0.09,1.39,-0.33,-11.3,0.67,-0.85,0.0,0.0,0.0,-9.45,1.1,-2.37
1738246883.5799024,5223,0,0,,0.0,-0.75,0.27,0.59,0.15,0.19,1.45,-0.34,-10.51,0.14,-1.93,0.0,0.0,0.0,-9.38,1.03,-2.63
1738246883.5968375,5224,0,0,,0.0,-0.76,0.28,0.58,0.15,0.23,1.47,-0.38,-10.01,0.56,-2.99,0.0,0.0,0.0,-9.31,0.95,-2.9
1738246883.6141095,5225,0,0,,0.0,-0.76,0.28,0.57,0.15,0.21,1.57,-0.45,-10.57,0.17,-1.73,0.0,0.0,0.0,-9.27,0.9,-3.05
1738246883.6300538,5226,0,0,,0.0,-0.77,0.28,0.56,0.15,0.24,1.62,-0.49,-9.66,-0.07,-1.7,0.0,0.0,0.0,-9.18,0.8,-3.33
1738246883.6464853,5227,0,0,,0.0,-0.78,0.28,0.54,0.15,0.34,1.74,-0.49,-9.53,-0.62,-0.85,0.0,0.0,0.0,-9.07,0.68,-3.66
1738246883.664295,5228,0,0,,0.0,-0.79,0.28,0.52,0.15,0.45,1.98,-0.53,-9.53,-0.61,-0.69,0.0,0.0,0.0,-9.0,0.62,-3.83
1738246883.6802354,5229,0,0,,0.0,-0.8,0.28,0.51,0.15,0.55,2.25,-0.5,-9.76,-0.66,-0.37,0.0,0.0,0.0,-8.83,0.49,-4.22
1738246883.6969788,5230,0,0,,0.0,-0.81,0.28,0.49,0.15,0.61,2.4,-0.45,-10.59,-0.09,-0.59,0.0,0.0,0.0,-8.62,0.37,-4.64
1738246883.7142036,5231,0,0,,0.0,-0.82,0.29,0.47,0.15,0.7,2.67,-0.25,-11.22,0.91,-0.22,0.0,0.0,0.0,-8.5,0.32,-4.87
1738246883.7303982,5232,0,0,,0.0,-0.83,0.29,0.46,0.14,0.57,2.86,0.07,-12.65,2.49,-1.26,0.0,0.0,0.0,-8.22,0.26,-5.32
1738246883.7474518,5233,0,0,,0.0,-0.84,0.3,0.43,0.14,0.38,2.99,0.1,-14.82,2.69,-2.34,0.0,0.0,0.0,-7.9,0.24,-5.8
1738246883.7643566,5234,0,0,,0.0,-0.85,0.3,0.4,0.13,0.13,3.11,0.13,-15.21,2.05,-4.69,0.0,0.0,0.0,-7.72,0.24,-6.03
1738246883.780874,5235,0,0,,0.0,-0.86,0.3,0.39,0.12,-0.4,2.94,0.15,-14.01,2.76,-5.22,0.0,0.0,0.0,-7.35,0.28,-6.48
1738246883.7970114,5236,0,0,,0.0,-0.87,0.31,0.37,0.11,-0.75,2.78,0.14,-11.32,2.5,-4.35,0.0,0.0,0.0,-7.0,0.42,-6.84
1738246883.8147504,5237,0,0,,0.0,-0.88,0.31,0.36,0.09,-1.27,2.34,0.29,-11.67,2.63,-3.37,0.0,0.0,0.0,-6.84,0.52,-6.99
1738246883.8314774,5238,0,0,,0.0,-0.88,0.31,0.35,0.08,-1.25,1.62,0.34,-10.78,-2.07,-2.34,0.0,0.0,0.0,-6.57,0.74,-7.24
1738246883.847374,5239,0,0,,0.0,-0.89,0.31,0.34,0.07,-1.25,1.62,0.34,-8.55,-1.57,-2.79,0.0,0.0,0.0,-6.36,0.91,-7.4
1738246883.8645933,5240,0,0,,0.0,-0.89,0.31,0.34,0.06,-0.09,0.91,0.18,-7.63,-0.43,-2.99,0.0,0.0,0.0,-6.29,0.93,-7.46
1738246883.8816776,5241,0,0,,0.0,-0.89,0.31,0.34,0.07,0.36,0.13,0.16,-6.36,-0.34,-2.79,0.0,0.0,0.0,-6.24,0.9,-7.5
1738246883.8974605,5242,0,0,,0.0,-0.88,0.31,0.34,0.07,0.4,-0.3,0.13,-5.09,1.13,-3.04,0.0,0.0,0.0,-6.31,0.85,-7.45
1738246883.9150987,5243,0,0,,0.0,-0.88,0.31,0.35,0.08,0.29,-1.39,-0.06,-4.8,1.14,-3.2,0.0,0.0,0.0,-6.41,0.82,-7.37
1738246883.9321353,5244,0,0,,0.0,-0.88,0.31,0.36,0.08,0.1,-1.72,-0.1,-5.09,0.36,-3.53,0.0,0.0,0.0,-6.63,0.79,-7.17
1738246883.9483821,5245,0,0,,0.0,-0.87,0.31,0.38,0.09,-0.01,-2.03,-0.12,-5.12,0.03,-3.74,0.0,0.0,0.0,-6.93,0.78,-6.89
1738246883.9654138,5246,0,0,,0.0,-0.86,0.3,0.4,0.09,-0.15,-2.58,-0.14,-5.11,-0.24,-3.87,0.0,0.0,0.0,-7.1,0.78,-6.71
1738246883.9820356,5247,0,0,,0.0,-0.86,0.3,0.41,0.1,-0.21,-3.04,-0.2,-5.75,-0.57,-4.31,0.0,0.0,0.0,-7.47,0.78,-6.3
1738246883.9978426,5248,0,0,,0.0,-0.84,0.29,0.44,0.11,-0.21,-3.24,-0.23,-5.93,-0.31,-4.37,0.0,0.0,0.0,-7.87,0.76,-5.8
1738246884.0151644,5249,0,0,,0.0,-0.83,0.29,0.47,0.12,-0.24,-3.63,-0.29,-6.65,-0.49,-4.74,0.0,0.0,0.0,-8.07,0.75,-5.51
1738246884.0321586,5250,0,0,,0.0,-0.82,0.28,0.49,0.12,-0.1,-3.98,-0.35,-7.26,-0.33,-5.37,0.0,0.0,0.0,-8.46,0.72,-4.89
1738246884.047791,5251,0,0,,0.0,-0.8,0.28,0.52,0.14,0.04,-4.11,-0.35,-8.39,0.03,-6.28,0.0,0.0,0.0,-8.83,0.65,-4.19
1738246884.065468,5252,0,0,,0.0,-0.78,0.27,0.55,0.15,0.13,-4.28,-0.31,-8.75,0.32,-6.43,0.0,0.0,0.0,-9.0,0.62,-3.82
1738246884.0826335,5253,0,0,,0.0,-0.77,0.26,0.57,0.16,-0.07,-4.35,-0.23,-9.35,1.29,-7.01,0.0,0.0,0.0,-9.29,0.57,-3.05
1738246884.097947,5254,0,0,,0.0,-0.74,0.25,0.6,0.16,-0.27,-4.35,-0.19,-9.56,1.35,-6.98,0.0,0.0,0.0,-9.52,0.56,-2.26
1738246884.1160026,5255,0,0,,0.0,-0.72,0.24,0.63,0.17,-0.77,-4.31,-0.14,-9.98,1.08,-6.85,0.0,0.0,0.0,-9.61,0.56,-1.85
1738246884.1322525,5256,0,0,,0.0,-0.71,0.23,0.65,0.17,-1.13,-4.27,-0.15,-10.61,0.4,-6.07,0.0,0.0,0.0,-9.73,0.57,-1.04
1738246884.1485517,5257,0,0,,0.0,-0.68,0.22,0.68,0.17,-1.2,-4.24,-0.17,-11.84,-0.11,-5.3,0.0,0.0,0.0,-9.78,0.54,-0.23
1738246884.1656177,5258,0,0,,0.0,-0.66,0.2,0.71,0.18,-1.11,-4.19,-0.24,-12.16,-0.09,-5.1,0.0,0.0,0.0,-9.79,0.52,0.17
1738246884.1829047,5259,0,0,,0.0,-0.64,0.19,0.72,0.18,-0.89,-4.1,-0.26,-12.46,0.03,-4.84,0.0,0.0,0.0,-9.74,0.46,0.96
1738246884.1979115,5260,0,0,,0.0,-0.62,0.18,0.74,0.18,-0.77,-4.0,-0.26,-12.37,-0.04,-4.64,0.0,0.0,0.0,-9.64,0.4,1.7
1738246884.2159421,5261,0,0,,0.0,-0.59,0.17,0.77,0.19,-0.48,-3.69,-0.23,-12.38,-0.07,-4.7,0.0,0.0,0.0,-9.5,0.34,2.37
1738246884.2333066,5262,0,0,,0.0,-0.58,0.17,0.77,0.19,-0.13,-3.23,-0.19,-12.17,-0.29,-4.81,0.0,0.0,0.0,-9.43,0.32,2.66
1738246884.2482321,5263,0,0,,0.0,-0.56,0.16,0.79,0.2,0.18,-2.66,-0.12,-10.27,-0.05,-4.82,0.0,0.0,0.0,-9.27,0.3,3.17
1738246884.2659762,5264,0,0,,0.0,-0.54,0.16,0.8,0.2,0.33,-2.36,-0.09,-9.63,0.18,-4.76,0.0,0.0,0.0,-9.12,0.32,3.56
1738246884.2829092,5265,0,0,,0.0,-0.53,0.16,0.8,0.21,0.62,-1.66,0.0,-8.72,0.55,-4.96,0.0,0.0,0.0,-9.07,0.34,3.7
1738246884.298085,5266,0,0,,0.0,-0.52,0.16,0.81,0.21,0.66,-0.86,0.11,-8.65,0.38,-4.77,0.0,0.0,0.0,-8.99,0.4,3.89
1738246884.3158765,5267,0,0,,0.0,-0.52,0.17,0.81,0.21,0.64,-0.45,0.13,-8.81,0.43,-4.9,0.0,0.0,0.0,-8.97,0.47,3.93
1738246884.3329809,5268,0,0,,0.0,-0.52,0.17,0.81,0.21,0.45,0.33,0.13,-8.81,0.61,-4.76,0.0,0.0,0.0,-8.98,0.5,3.9
1738246884.3485103,5269,0,0,,0.0,-0.53,0.17,0.8,0.21,0.03,0.94,0.09,-10.07,0.62,-0.17,0.0,0.0,0.0,-9.04,0.53,3.75
1738246884.3656833,5270,0,0,,0.0,-0.53,0.17,0.8,0.21,-0.07,1.02,0.07,-15.87,0.22,19.8,0.0,0.0,0.0,-9.1,0.53,3.61
1738246884.3837085,5271,0,0,,0.0,-0.53,0.18,0.8,0.21,0.11,-0.1,0.01,-14.06,-1.38,9.01,0.0,0.0,0.0,-9.09,0.54,3.62
1738246884.3982,5272,0,0,,0.0,-0.53,0.18,0.8,0.21,0.02,-0.07,0.41,-7.29,0.56,-3.38,0.0,0.0,0.0,-9.07,0.59,3.65
1738246884.4163463,5273,0,0,,0.0,-0.53,0.18,0.8,0.21,-0.0,0.35,0.34,-10.2,1.13,1.8,0.0,0.0,0.0,-9.11,0.63,3.57
1738246884.4340131,5274,0,0,,0.0,-0.54,0.18,0.8,0.2,-0.47,0.67,0.24,-10.62,-0.33,1.8,0.0,0.0,0.0,-9.13,0.64,3.51
1738246884.4494357,5275,0,0,,0.0,-0.54,0.17,0.8,0.19,-0.89,0.64,0.28,-9.12,-0.89,2.91,0.0,0.0,0.0,-9.17,0.64,3.4
1738246884.4668572,5276,0,0,,0.0,-0.55,0.17,0.8,0.19,-0.71,0.57,0.24,-8.6,-0.6,3.18,0.0,0.0,0.0,-9.2,0.64,3.31
1738246884.483869,5277,0,0,,0.0,-0.55,0.17,0.79,0.19,-0.09,0.63,0.29,-9.14,0.56,2.18,0.0,0.0,0.0,-9.22,0.67,3.26
1738246884.4991176,5278,0,0,,0.0,-0.56,0.18,0.79,0.18,0.11,0.64,0.27,-8.97,1.76,3.3,0.0,0.0,0.0,-9.26,0.72,3.14
1738246884.5161626,5279,0,0,,0.0,-0.56,0.18,0.79,0.18,0.19,0.61,0.27,-9.09,1.46,2.66,0.0,0.0,0.0,-9.29,0.79,3.03
1738246884.5338924,5280,0,0,,0.0,-0.56,0.18,0.79,0.18,0.27,0.64,0.35,-9.78,1.52,2.34,0.0,0.0,0.0,-9.3,0.83,2.97
1738246884.548837,5281,0,0,,0.0,-0.57,0.19,0.78,0.18,0.13,0.68,0.34,-9.38,1.15,2.64,0.0,0.0,0.0,-9.34,0.9,2.84
1738246884.5666845,5282,0,0,,0.0,-0.57,0.19,0.78,0.17,-0.04,0.67,0.36,-9.11,0.84,2.31,0.0,0.0,0.0,-9.37,0.96,2.72
1738246884.584178,5283,0,0,,0.0,-0.57,0.19,0.78,0.17,-0.2,0.69,0.39,-9.29,0.79,2.07,0.0,0.0,0.0,-9.38,0.99,2.66
1738246884.5989468,5284,0,0,,0.0,-0.58,0.19,0.78,0.16,-0.4,0.67,0.39,-9.62,1.24,1.55,0.0,0.0,0.0,-9.41,1.05,2.54
1738246884.6164165,5285,0,0,,0.0,-0.58,0.19,0.77,0.16,-0.51,0.65,0.39,-9.7,1.11,1.3,0.0,0.0,0.0,-9.43,1.09,2.44
1738246884.6340814,5286,0,0,,0.0,-0.58,0.19,0.77,0.15,-0.51,0.63,0.36,-9.9,0.62,1.36,0.0,0.0,0.0,-9.44,1.11,2.38
1738246884.6494927,5287,0,0,,0.0,-0.59,0.19,0.77,0.15,-0.3,0.56,0.31,-9.99,0.0,1.27,0.0,0.0,0.0,-9.46,1.15,2.29
1738246884.6665056,5288,0,0,,0.0,-0.59,0.19,0.77,0.15,-0.12,0.53,0.28,-10.02,0.0,1.09,0.0,0.0,0.0,-9.48,1.2,2.19
1738246884.684215,5289,0,0,,0.0,-0.59,0.19,0.77,0.14,0.17,0.54,0.23,-10.25,0.36,1.75,0.0,0.0,0.0,-9.49,1.23,2.14
1738246884.6985793,5290,0,0,,0.0,-0.6,0.2,0.76,0.14,0.28,0.52,0.18,-9.83,0.62,1.46,0.0,0.0,0.0,-9.5,1.27,2.03
1738246884.7162852,5291,0,0,,0.0,-0.6,0.2,0.76,0.14,0.31,0.52,0.16,-9.46,0.92,1.21,0.0,0.0,0.0,-9.52,1.31,1.93
1738246884.733798,5292,0,0,,0.0,-0.6,0.2,0.76,0.14,0.39,0.56,0.13,-9.56,0.99,1.91,0.0,0.0,0.0,-9.53,1.33,1.87
1738246884.7487605,5293,0,0,,0.0,-0.61,0.21,0.75,0.14,0.47,0.57,0.09,-9.27,1.16,1.76,0.0,0.0,0.0,-9.54,1.37,1.76
1738246884.7667735,5294,0,0,,0.0,-0.61,0.21,0.75,0.15,0.5,0.57,0.08,-9.16,1.27,1.28,0.0,0.0,0.0,-9.56,1.4,1.63
1738246884.7841876,5295,0,0,,0.0,-0.61,0.22,0.75,0.15,0.51,0.6,0.06,-9.55,1.38,1.35,0.0,0.0,0.0,-9.57,1.41,1.57
1738246884.7988636,5296,0,0,,0.0,-0.61,0.22,0.74,0.15,0.46,0.57,0.04,-9.53,1.24,1.18,0.0,0.0,0.0,-9.59,1.43,1.45
1738246884.8166983,5297,0,0,,0.0,-0.62,0.22,0.74,0.15,0.44,0.56,0.04,-9.6,1.15,0.63,0.0,0.0,0.0,-9.6,1.45,1.34
1738246884.8344712,5298,0,0,,0.0,-0.62,0.23,0.74,0.15,0.4,0.56,0.04,-9.93,0.89,1.01,0.0,0.0,0.0,-9.61,1.46,1.28
1738246884.849581,5299,0,0,,0.0,-0.62,0.23,0.73,0.15,0.38,0.53,0.02,-9.78,0.69,0.18,0.0,0.0,0.0,-9.62,1.47,1.17
1738246884.8670874,5300,0,0,,0.0,-0.63,0.23,0.73,0.15,0.38,0.53,0.02,-9.92,0.79,0.33,0.0,0.0,0.0,-9.63,1.49,1.06
1738246884.8846695,5301,0,0,,0.0,-0.63,0.24,0.73,0.15,0.4,0.55,0.02,-9.94,0.94,0.82,0.0,0.0,0.0,-9.63,1.49,1.0
1738246884.899081,5302,0,0,,0.0,-0.63,0.24,0.72,0.15,0.31,0.5,0.02,-9.74,1.28,0.59,0.0,0.0,0.0,-9.64,1.5,0.89
1738246884.9166949,5303,0,0,,0.0,-0.63,0.24,0.72,0.15,0.24,0.5,0.02,-9.72,1.39,0.36,0.0,0.0,0.0,-9.65,1.51,0.79
1738246884.9341748,5304,0,0,,0.0,-0.64,0.24,0.72,0.15,0.14,0.51,0.02,-9.81,1.32,0.52,0.0,0.0,0.0,-9.65,1.51,0.74
1738246884.9495528,5305,0,0,,0.0,-0.64,0.24,0.71,0.15,0.1,0.51,0.02,-9.58,1.11,0.24,0.0,0.0,0.0,-9.66,1.52,0.65
1738246884.9675634,5306,0,0,,0.0,-0.64,0.25,0.71,0.15,0.11,0.52,0.01,-9.76,1.06,0.6,0.0,0.0,0.0,-9.67,1.52,0.54
1738246884.9840693,5307,0,0,,0.0,-0.64,0.25,0.71,0.15,0.13,0.57,0.01,-9.92,1.14,0.48,0.0,0.0,0.0,-9.67,1.52,0.49
1738246884.9989097,5308,0,0,,0.0,-0.65,0.25,0.7,0.15,0.08,0.57,0.01,-9.73,1.13,-0.23,0.0,0.0,0.0,-9.68,1.51,0.37
1738246885.016872,5309,0,0,,0.0,-0.65,0.25,0.7,0.15,0.06,0.57,0.01,-10.02,1.04,0.23,0.0,0.0,0.0,-9.68,1.52,0.26
1738246885.0347161,5310,0,0,,0.0,-0.65,0.25,0.7,0.15,0.1,0.59,-0.01,-9.68,1.18,-0.12,0.0,0.0,0.0,-9.68,1.52,0.2
1738246885.050022,5311,0,0,,0.0,-0.66,0.25,0.69,0.15,0.14,0.61,-0.01,-9.62,1.1,-0.13,0.0,0.0,0.0,-9.68,1.52,0.09
1738246885.0680115,5312,0,0,,0.0,-0.66,0.25,0.69,0.15,0.16,0.62,-0.02,-10.09,1.08,0.23,0.0,0.0,0.0,-9.68,1.51,-0.03
1738246885.085401,5313,0,0,,0.0,-0.67,0.25,0.69,0.15,0.18,0.65,-0.03,-9.77,1.33,-0.31,0.0,0.0,0.0,-9.68,1.51,-0.09
1738246885.100022,5314,0,0,,0.0,-0.67,0.26,0.68,0.15,0.19,0.66,-0.04,-9.7,1.14,-0.84,0.0,0.0,0.0,-9.68,1.5,-0.22
1738246885.117812,5315,0,0,,0.0,-0.67,0.26,0.68,0.15,0.2,0.68,-0.04,-10.26,0.86,-0.09,0.0,0.0,0.0,-9.68,1.49,-0.36
1738246885.1345208,5316,0,0,,0.0,-0.67,0.26,0.68,0.15,0.26,0.72,-0.06,-9.91,1.16,-0.33,0.0,0.0,0.0,-9.68,1.48,-0.43
1738246885.1502855,5317,0,0,,0.0,-0.68,0.26,0.67,0.15,0.27,0.75,-0.07,-9.99,1.2,-0.7,0.0,0.0,0.0,-9.67,1.46,-0.58
1738246885.1673849,5318,0,0,,0.0,-0.68,0.26,0.66,0.15,0.27,0.8,-0.07,-10.47,0.96,-0.47,0.0,0.0,0.0,-9.67,1.44,-0.74
1738246885.1849887,5319,0,0,,0.0,-0.69,0.27,0.66,0.15,0.34,0.85,-0.09,-10.36,0.8,-0.45,0.0,0.0,0.0,-9.66,1.43,-0.82
1738246885.2001286,5320,0,0,,0.0,-0.69,0.27,0.65,0.15,0.39,0.91,-0.1,-10.29,0.83,-1.21,0.0,0.0,0.0,-9.65,1.4,-1.0
1738246885.2182314,5321,0,0,,0.0,-0.7,0.27,0.65,0.15,0.38,0.95,-0.12,-10.73,0.6,-0.68,0.0,0.0,0.0,-9.63,1.37,-1.19
1738246885.2350273,5322,0,0,,0.0,-0.7,0.27,0.64,0.15,0.38,1.01,-0.16,-10.41,0.89,-1.14,0.0,0.0,0.0,-9.62,1.35,-1.29
1738246885.2503643,5323,0,0,,0.0,-0.71,0.28,0.63,0.15,0.39,1.08,-0.19,-10.37,0.59,-1.32,0.0,0.0,0.0,-9.6,1.3,-1.5
1738246885.2682233,5324,0,0,,0.0,-0.71,0.28,0.62,0.15,0.42,1.12,-0.21,-10.41,0.47,-1.06,0.0,0.0,0.0,-9.57,1.25,-1.72
1738246885.285589,5325,0,0,,0.0,-0.72,0.28,0.61,0.16,0.52,1.17,-0.27,-10.31,0.26,-0.81,0.0,0.0,0.0,-9.55,1.21,-1.83
1738246885.300129,5326,0,0,,0.0,-0.73,0.28,0.61,0.16,0.57,1.25,-0.37,-11.58,1.98,-1.4,0.0,0.0,0.0,-9.51,1.13,-2.07
1738246885.31816,5327,0,0,,0.0,-0.73,0.28,0.6,0.16,0.44,1.34,-0.4,-10.69,-0.06,-0.87,0.0,0.0,0.0,-9.46,1.04,-2.32
1738246885.3360605,5328,0,0,,0.0,-0.74,0.29,0.59,0.16,0.49,1.28,-0.44,-9.05,0.56,-2.58,0.0,0.0,0.0,-9.44,0.98,-2.45
1738246885.3507519,5329,0,0,,0.0,-0.75,0.29,0.58,0.16,0.54,1.45,-0.5,-9.85,0.13,-2.21,0.0,0.0,0.0,-9.38,0.87,-2.72
1738246885.3687809,5330,0,0,,0.0,-0.76,0.29,0.57,0.16,0.36,1.53,-0.57,-10.17,0.11,-0.96,0.0,0.0,0.0,-9.3,0.75,-2.99
1738246885.385665,5331,0,0,,0.0,-0.77,0.29,0.55,0.16,0.21,1.54,-0.62,-9.55,0.08,-1.52,0.0,0.0,0.0,-9.26,0.69,-3.13
1738246885.400488,5332,0,0,,0.0,-0.77,0.29,0.55,0.16,0.12,1.69,-0.6,-8.92,-0.28,-1.88,0.0,0.0,0.0,-9.16,0.57,-3.43
1738246885.4187639,5333,0,0,,0.0,-0.78,0.28,0.53,0.16,0.14,1.96,-0.68,-9.19,-0.85,-0.04,0.0,0.0,0.0,-9.04,0.45,-3.76
1738246885.4358325,5334,0,0,,0.0,-0.79,0.28,0.51,0.16,0.23,2.11,-0.69,-9.32,-0.33,0.0,0.0,0.0,0.0,-8.96,0.38,-3.95
1738246885.4511833,5335,0,0,,0.0,-0.8,0.28,0.5,0.16,0.34,2.41,-0.59,-10.62,1.17,0.26,0.0,0.0,0.0,-8.78,0.24,-4.35
1738246885.4686987,5336,0,0,,0.0,-0.81,0.29,0.48,0.16,0.38,2.6,-0.3,-10.81,1.63,-0.57,0.0,0.0,0.0,-8.55,0.15,-4.78
1738246885.4862835,5337,0,0,,0.0,-0.83,0.29,0.46,0.15,0.33,2.79,-0.17,-11.79,1.92,-3.71,0.0,0.0,0.0,-8.42,0.12,-5.01
1738246885.5005562,5338,0,0,,0.0,-0.83,0.29,0.44,0.15,0.09,3.28,-0.07,-15.05,2.08,-3.31,0.0,0.0,0.0,-8.1,0.09,-5.52
1738246885.5187678,5339,0,0,,0.0,-0.85,0.3,0.42,0.14,-0.08,3.35,-0.01,-16.97,2.28,-3.82,0.0,0.0,0.0,-7.72,0.09,-6.03
1738246885.5359828,5340,0,0,,0.0,-0.86,0.3,0.39,0.13,-0.05,3.25,0.01,-16.09,2.64,-4.56,0.0,0.0,0.0,-7.53,0.1,-6.27
1738246885.5513537,5341,0,0,,0.0,-0.87,0.3,0.38,0.12,-0.38,2.8,0.16,-9.91,2.72,-2.98,0.0,0.0,0.0,-7.16,0.15,-6.69
1738246885.569279,5342,0,0,,0.0,-0.87,0.31,0.36,0.11,-0.96,2.35,0.27,-10.94,0.95,-0.83,0.0,0.0,0.0,-6.83,0.29,-7.02
1738246885.5865748,5343,0,0,,0.0,-0.88,0.31,0.35,0.09,-1.07,2.03,0.36,-12.01,-0.94,-2.88,0.0,0.0,0.0,-6.57,0.48,-7.25
1738246885.600916,5344,0,0,,0.0,-0.88,0.31,0.34,0.09,-0.63,1.39,0.37,-10.55,-0.74,-2.7,0.0,0.0,0.0,-6.47,0.55,-7.34
1738246885.6196158,5345,0,0,,0.0,-0.88,0.31,0.34,0.08,-0.05,0.69,0.33,-7.98,-0.62,-2.89,0.0,0.0,0.0,-6.34,0.61,-7.45
1738246885.6361184,5346,0,0,,0.0,-0.88,0.31,0.34,0.08,0.08,0.3,0.31,-7.23,-0.45,-2.77,0.0,0.0,0.0,-6.32,0.63,-7.46
1738246885.6515179,5347,0,0,,0.0,-0.88,0.32,0.34,0.08,0.21,-0.5,0.22,-5.62,0.46,-3.25,0.0,0.0,0.0,-6.36,0.63,-7.43
1738246885.6694815,5348,0,0,,0.0,-0.88,0.32,0.35,0.09,-0.07,-1.22,0.11,-5.27,0.12,-3.4,0.0,0.0,0.0,-6.51,0.64,-7.3
1738246885.6861632,5349,0,0,,0.0,-0.87,0.31,0.36,0.09,-0.23,-1.56,0.05,-5.2,-0.31,-3.33,0.0,0.0,0.0,-6.75,0.68,-7.07
1738246885.7009895,5350,0,0,,0.0,-0.87,0.31,0.37,0.09,-0.3,-2.23,-0.07,-5.47,-0.56,-3.55,0.0,0.0,0.0,-6.9,0.7,-6.92
1738246885.7196128,5351,0,0,,0.0,-0.86,0.31,0.39,0.1,-0.25,-2.8,-0.17,-5.84,-0.88,-3.73,0.0,0.0,0.0,-7.25,0.71,-6.56
1738246885.7368114,5352,0,0,,0.0,-0.85,0.3,0.42,0.11,-0.18,-3.05,-0.22,-5.92,-0.68,-4.03,0.0,0.0,0.0,-7.64,0.7,-6.1
1738246885.7513258,5353,0,0,,0.0,-0.84,0.3,0.44,0.11,-0.19,-3.47,-0.31,-6.46,-0.56,-4.28,0.0,0.0,0.0,-7.84,0.69,-5.84
1738246885.7702348,5354,0,0,,0.0,-0.83,0.29,0.47,0.12,-0.28,-3.83,-0.38,-7.15,-0.34,-5.11,0.0,0.0,0.0,-8.25,0.66,-5.25
1738246885.7871065,5355,0,0,,0.0,-0.81,0.28,0.5,0.13,-0.32,-3.99,-0.4,-7.21,-0.31,-5.44,0.0,0.0,0.0,-8.64,0.62,-4.58
1738246885.801436,5356,0,0,,0.0,-0.8,0.27,0.52,0.14,-0.3,-4.21,-0.42,-7.98,-0.24,-6.44,0.0,0.0,0.0,-8.82,0.6,-4.22
1738246885.8201923,5357,0,0,,0.0,-0.78,0.26,0.55,0.15,-0.39,-4.31,-0.4,-8.63,0.1,-6.81,0.0,0.0,0.0,-9.15,0.55,-3.47
1738246885.837085,5358,0,0,,0.0,-0.76,0.25,0.58,0.16,-0.51,-4.32,-0.38,-9.05,0.73,-7.36,0.0,0.0,0.0,-9.41,0.52,-2.69
1738246885.852502,5359,0,0,,0.0,-0.75,0.24,0.6,0.16,-0.87,-4.3,-0.32,-9.18,1.18,-7.4,0.0,0.0,0.0,-9.51,0.51,-2.29
1738246885.8709533,5360,0,0,,0.0,-0.72,0.23,0.63,0.16,-1.25,-4.24,-0.31,-9.8,0.88,-6.92,0.0,0.0,0.0,-9.67,0.5,-1.49
1738246885.8872426,5361,0,0,,0.0,-0.7,0.21,0.66,0.16,-1.4,-4.2,-0.33,-10.04,0.57,-6.56,0.0,0.0,0.0,-9.77,0.46,-0.69
1738246885.9020395,5362,0,0,,0.0,-0.69,0.2,0.68,0.17,-1.48,-4.12,-0.41,-10.85,0.09,-6.18,0.0,0.0,0.0,-9.79,0.43,-0.29
1738246885.9214096,5363,0,0,,0.0,-0.66,0.18,0.7,0.17,-1.26,-4.0,-0.45,-11.45,0.12,-5.63,0.0,0.0,0.0,-9.78,0.35,0.47
1738246885.937042,5364,0,0,,0.0,-0.64,0.17,0.73,0.17,-1.12,-3.92,-0.44,-11.69,0.07,-5.31,0.0,0.0,0.0,-9.72,0.25,1.21
1738246885.9524415,5365,0,0,,0.0,-0.63,0.16,0.74,0.17,-0.77,-3.69,-0.38,-12.13,0.19,-5.11,0.0,0.0,0.0,-9.67,0.2,1.56
1738246885.9715154,5366,0,0,,0.0,-0.6,0.15,0.76,0.18,-0.37,-3.31,-0.26,-11.54,0.68,-5.4,0.0,0.0,0.0,-9.55,0.13,2.2
1738246885.9872725,5367,0,0,,0.0,-0.58,0.14,0.78,0.18,-0.22,-3.05,-0.2,-11.63,0.7,-5.39,0.0,0.0,0.0,-9.41,0.09,2.73
1738246886.002572,5368,0,0,,0.0,-0.57,0.14,0.79,0.18,-0.08,-2.51,-0.1,-11.23,0.22,-5.18,0.0,0.0,0.0,-9.34,0.08,2.96
1738246886.0208488,5369,0,0,,0.0,-0.56,0.14,0.8,0.19,0.28,-1.93,-0.04,-10.07,-0.23,-4.78,0.0,0.0,0.0,-9.22,0.08,3.33
1738246886.037224,5370,0,0,,0.0,-0.55,0.14,0.8,0.19,0.55,-1.64,-0.03,-9.75,0.11,-4.63,0.0,0.0,0.0,-9.12,0.12,3.6
1738246886.0521593,5371,0,0,,0.0,-0.54,0.14,0.81,0.2,0.94,-1.02,0.05,-9.3,0.92,-4.26,0.0,0.0,0.0,-9.08,0.16,3.68
1738246886.0716233,5372,0,0,,0.0,-0.53,0.15,0.81,0.2,1.07,-0.32,0.17,-8.82,1.53,-5.43,0.0,0.0,0.0,-9.04,0.26,3.77
1738246886.08747,5373,0,0,,0.0,-0.53,0.16,0.81,0.2,0.95,0.06,0.21,-9.28,1.8,-4.56,0.0,0.0,0.0,-9.06,0.36,3.72
1738246886.1022003,5374,0,0,,0.0,-0.54,0.16,0.8,0.2,0.46,0.68,0.19,-9.52,0.9,-3.61,0.0,0.0,0.0,-9.08,0.39,3.66
1738246886.1218424,5375,0,0,,0.0,-0.54,0.16,0.8,0.2,0.01,1.02,0.2,-11.26,0.44,5.64,0.0,0.0,0.0,-9.15,0.43,3.49
1738246886.1377344,5376,0,0,,0.0,-0.55,0.17,0.8,0.2,-0.03,0.87,0.19,-13.97,-0.93,16.13,0.0,0.0,0.0,-9.18,0.46,3.39
1738246886.1523888,5377,0,0,,0.0,-0.55,0.17,0.8,0.2,0.11,-0.25,0.09,-10.79,-2.81,4.51,0.0,0.0,0.0,-9.18,0.47,3.41
1738246886.1715572,5378,0,0,,0.0,-0.54,0.17,0.8,0.2,0.23,-0.03,0.37,-6.51,-1.27,-4.78,0.0,0.0,0.0,-9.16,0.55,3.44
1738246886.1874914,5379,0,0,,0.0,-0.55,0.17,0.8,0.19,0.12,0.38,0.26,-10.52,0.02,2.69,0.0,0.0,0.0,-9.19,0.59,3.35
1738246886.2024295,5380,0,0,,0.0,-0.55,0.17,0.79,0.19,-0.28,0.64,0.28,-11.3,0.74,2.73,0.0,0.0,0.0,-9.21,0.61,3.3
1738246886.2217152,5381,0,0,,0.0,-0.55,0.17,0.79,0.19,-0.63,0.54,0.34,-8.96,2.2,1.82,0.0,0.0,0.0,-9.24,0.63,3.2
1738246886.237391,5382,0,0,,0.0,-0.56,0.17,0.79,0.18,-0.63,0.51,0.33,-8.92,1.1,2.33,0.0,0.0,0.0,-9.27,0.66,3.11
1738246886.2526214,5383,0,0,,0.0,-0.56,0.17,0.79,0.18,-0.13,0.58,0.4,-9.11,0.84,2.6,0.0,0.0,0.0,-9.28,0.69,3.06
1738246886.2714455,5384,0,0,,0.0,-0.56,0.18,0.79,0.17,0.27,0.53,0.4,-8.7,0.63,2.91,0.0,0.0,0.0,-9.31,0.78,2.96
1738246886.2876217,5385,0,0,,0.0,-0.57,0.18,0.79,0.17,0.4,0.48,0.41,-8.51,0.36,2.7,0.0,0.0,0.0,-9.33,0.88,2.86
1738246886.3024175,5386,0,0,,0.0,-0.57,0.18,0.78,0.17,0.46,0.53,0.41,-9.54,1.1,2.08,0.0,0.0,0.0,-9.34,0.93,2.81
1738246886.3214965,5387,0,0,,0.0,-0.57,0.19,0.78,0.17,-0.02,0.6,0.38,-9.6,2.36,1.86,0.0,0.0,0.0,-9.37,1.01,2.7
1738246886.3376017,5388,0,0,,0.0,-0.58,0.19,0.78,0.16,-0.3,0.62,0.36,-10.05,1.75,1.91,0.0,0.0,0.0,-9.39,1.05,2.6
1738246886.3526506,5389,0,0,,0.0,-0.58,0.19,0.78,0.16,-0.71,0.59,0.33,-10.03,1.16,1.85,0.0,0.0,0.0,-9.4,1.06,2.55
1738246886.3729365,5390,0,0,,0.0,-0.58,0.18,0.78,0.15,-0.58,0.56,0.31,-9.8,-0.48,1.1,0.0,0.0,0.0,-9.42,1.09,2.46
1738246886.3879461,5391,0,0,,0.0,-0.59,0.19,0.77,0.15,-0.29,0.57,0.29,-10.22,-0.01,2.13,0.0,0.0,0.0,-9.44,1.13,2.36
1738246886.4033434,5392,0,0,,0.0,-0.59,0.19,0.77,0.15,0.08,0.55,0.23,-9.94,0.18,1.96,0.0,0.0,0.0,-9.45,1.15,2.31
1738246886.4228177,5393,0,0,,0.0,-0.59,0.19,0.77,0.14,0.21,0.58,0.19,-9.49,0.83,1.34,0.0,0.0,0.0,-9.47,1.2,2.2
1738246886.4380143,5394,0,0,,0.0,-0.6,0.19,0.77,0.14,0.25,0.63,0.16,-9.5,1.12,2.07,0.0,0.0,0.0,-9.5,1.23,2.08
1738246886.4536963,5395,0,0,,0.0,-0.6,0.2,0.76,0.14,0.31,0.65,0.1,-9.5,1.06,2.08,0.0,0.0,0.0,-9.51,1.25,2.01
1738246886.473261,5396,0,0,,0.0,-0.6,0.2,0.76,0.14,0.43,0.64,0.06,-9.26,1.11,1.13,0.0,0.0,0.0,-9.53,1.28,1.89
1738246886.4886293,5397,0,0,,0.0,-0.61,0.21,0.75,0.15,0.5,0.64,0.05,-9.61,1.0,1.64,0.0,0.0,0.0,-9.55,1.31,1.76
1738246886.503088,5398,0,0,,0.0,-0.61,0.21,0.75,0.15,0.54,0.61,0.04,-9.54,1.07,1.11,0.0,0.0,0.0,-9.56,1.32,1.69
1738246886.5231369,5399,0,0,,0.0,-0.61,0.21,0.75,0.15,0.44,0.59,0.05,-9.58,0.91,0.75,0.0,0.0,0.0,-9.58,1.34,1.57
1738246886.5381927,5400,0,0,,0.0,-0.62,0.22,0.74,0.15,0.37,0.59,0.07,-9.84,0.54,0.85,0.0,0.0,0.0,-9.6,1.37,1.45
1738246886.553417,5401,0,0,,0.0,-0.62,0.22,0.74,0.15,0.27,0.57,0.08,-9.83,0.75,0.78,0.0,0.0,0.0,-9.6,1.38,1.39
1738246886.5732493,5402,0,0,,0.0,-0.62,0.22,0.74,0.15,0.23,0.57,0.09,-9.72,0.88,0.71,0.0,0.0,0.0,-9.61,1.4,1.28
1738246886.5881975,5403,0,0,,0.0,-0.62,0.22,0.73,0.15,0.23,0.58,0.09,-9.67,1.01,1.0,0.0,0.0,0.0,-9.63,1.42,1.17
1738246886.603118,5404,0,0,,0.0,-0.63,0.23,0.73,0.15,0.23,0.55,0.08,-9.49,1.22,0.54,0.0,0.0,0.0,-9.63,1.43,1.11
1738246886.6233778,5405,0,0,,0.0,-0.63,0.23,0.73,0.15,0.2,0.57,0.08,-9.63,1.35,0.24,0.0,0.0,0.0,-9.64,1.45,1.0
1738246886.6381073,5406,0,0,,0.0,-0.63,0.23,0.72,0.15,0.17,0.58,0.07,-9.75,1.16,0.46,0.0,0.0,0.0,-9.65,1.47,0.89
1738246886.6535788,5407,0,0,,0.0,-0.64,0.23,0.72,0.14,0.13,0.55,0.07,-9.7,1.1,0.55,0.0,0.0,0.0,-9.65,1.47,0.84
1738246886.6723146,5408,0,0,,0.0,-0.64,0.23,0.72,0.14,0.12,0.58,0.06,-9.74,1.01,0.59,0.0,0.0,0.0,-9.66,1.48,0.73
1738246886.687804,5409,0,0,,0.0,-0.64,0.24,0.71,0.14,0.13,0.6,0.06,-9.66,1.26,0.62,0.0,0.0,0.0,-9.67,1.48,0.61
1738246886.70338,5410,0,0,,0.0,-0.64,0.24,0.71,0.14,0.11,0.57,0.06,-9.71,1.15,0.56,0.0,0.0,0.0,-9.67,1.49,0.56
1738246886.7234592,5411,0,0,,0.0,-0.65,0.24,0.71,0.14,0.08,0.58,0.06,-9.66,1.21,-0.08,0.0,0.0,0.0,-9.68,1.49,0.44
1738246886.7386277,5412,0,0,,0.0,-0.65,0.24,0.71,0.14,0.07,0.58,0.05,-9.65,1.23,-0.14,0.0,0.0,0.0,-9.68,1.5,0.34
1738246886.7535336,5413,0,0,,0.0,-0.65,0.24,0.7,0.14,0.07,0.55,0.04,-9.66,1.17,-0.25,0.0,0.0,0.0,-9.68,1.51,0.28
1738246886.7738388,5414,0,0,,0.0,-0.66,0.24,0.7,0.14,0.08,0.59,0.03,-9.52,1.25,-0.33,0.0,0.0,0.0,-9.68,1.52,0.17
1738246886.7890906,5415,0,0,,0.0,-0.66,0.24,0.7,0.14,0.1,0.59,0.02,-9.83,1.12,0.37,0.0,0.0,0.0,-9.68,1.52,0.06
1738246886.8041928,5416,0,0,,0.0,-0.66,0.24,0.69,0.14,0.11,0.56,0.02,-9.55,1.28,-0.51,0.0,0.0,0.0,-9.68,1.52,0.0
1738246886.8235443,5417,0,0,,0.0,-0.67,0.25,0.69,0.14,0.13,0.61,0.01,-9.93,0.94,-0.37,0.0,0.0,0.0,-9.68,1.52,-0.11
1738246886.83862,5418,0,0,,0.0,-0.67,0.25,0.69,0.14,0.18,0.62,-0.0,-9.78,1.15,-0.26,0.0,0.0,0.0,-9.68,1.52,-0.23
1738246886.8543584,5419,0,0,,0.0,-0.67,0.25,0.68,0.14,0.23,0.6,-0.01,-9.57,1.19,-0.62,0.0,0.0,0.0,-9.68,1.52,-0.29
1738246886.8749824,5420,0,0,,0.0,-0.68,0.25,0.68,0.14,0.24,0.67,-0.02,-9.77,1.16,-0.7,0.0,0.0,0.0,-9.67,1.51,-0.42
1738246886.8892238,5421,0,0,,0.0,-0.68,0.25,0.67,0.14,0.25,0.69,-0.04,-9.78,1.31,-0.61,0.0,0.0,0.0,-9.67,1.5,-0.55
1738246886.9038334,5422,0,0,,0.0,-0.68,0.25,0.67,0.14,0.24,0.71,-0.04,-9.73,1.29,-0.67,0.0,0.0,0.0,-9.67,1.5,-0.62
1738246886.924692,5423,0,0,,0.0,-0.69,0.26,0.66,0.14,0.26,0.79,-0.04,-10.28,1.09,-0.33,0.0,0.0,0.0,-9.66,1.48,-0.78
1738246886.939582,5424,0,0,,0.0,-0.69,0.26,0.66,0.14,0.3,0.83,-0.07,-10.19,1.17,-0.74,0.0,0.0,0.0,-9.64,1.47,-0.94
1738246886.954132,5425,0,0,,0.0,-0.7,0.26,0.65,0.14,0.33,0.87,-0.07,-10.21,1.13,-1.1,0.0,0.0,0.0,-9.64,1.46,-1.02
1738246886.973888,5426,0,0,,0.0,-0.7,0.26,0.65,0.14,0.41,0.97,-0.09,-10.66,0.86,-0.5,0.0,0.0,0.0,-9.62,1.43,-1.21
1738246886.9886384,5427,0,0,,0.0,-0.71,0.27,0.64,0.14,0.43,0.99,-0.12,-10.52,0.86,-1.37,0.0,0.0,0.0,-9.6,1.4,-1.41
1738246887.0041463,5428,0,0,,0.0,-0.71,0.27,0.63,0.14,0.42,1.09,-0.15,-10.4,0.79,-1.62,0.0,0.0,0.0,-9.58,1.38,-1.52
1738246887.0249035,5429,0,0,,0.0,-0.72,0.27,0.62,0.14,0.46,1.19,-0.21,-10.78,0.27,-0.69,0.0,0.0,0.0,-9.55,1.33,-1.75
1738246887.0402632,5430,0,0,,0.0,-0.73,0.27,0.61,0.14,0.52,1.23,-0.29,-10.43,1.65,-2.17,0.0,0.0,0.0,-9.51,1.26,-1.99
1738246887.0564947,5431,0,0,,0.0,-0.73,0.28,0.6,0.14,0.41,1.32,-0.33,-11.08,2.22,-2.12,0.0,0.0,0.0,-9.49,1.22,-2.11
1738246887.0763702,5432,0,0,,0.0,-0.74,0.28,0.59,0.15,0.36,1.34,-0.37,-10.03,0.26,-1.5,0.0,0.0,0.0,-9.44,1.14,-2.37
1738246887.093057,5433,0,0,,0.0,-0.75,0.28,0.59,0.15,0.46,1.46,-0.4,-10.29,0.13,-1.8,0.0,0.0,0.0,-9.38,1.05,-2.64
1738246887.1108541,5434,0,0,,0.0,-0.76,0.28,0.57,0.15,0.3,1.55,-0.46,-9.85,0.88,-2.44,0.0,0.0,0.0,-9.31,0.95,-2.92
1738246887.1273746,5435,0,0,,0.0,-0.77,0.28,0.56,0.15,0.15,1.61,-0.5,-10.45,0.37,-1.17,0.0,0.0,0.0,-9.22,0.85,-3.21
1738246887.1459622,5436,0,0,,0.0,-0.77,0.28,0.55,0.15,0.03,1.68,-0.53,-9.57,0.0,-1.87,0.0,0.0,0.0,-9.17,0.8,-3.36
1738246887.1632047,5437,0,0,,0.0,-0.78,0.28,0.54,0.15,0.15,1.88,-0.55,-9.53,-0.85,-0.93,0.0,0.0,0.0,-9.05,0.7,-3.69
1738246887.1789355,5438,0,0,,0.0,-0.79,0.28,0.52,0.15,0.27,2.01,-0.56,-9.62,-0.43,-0.3,0.0,0.0,0.0,-8.91,0.58,-4.05
1738246887.1961715,5439,0,0,,0.0,-0.81,0.28,0.5,0.15,0.48,2.25,-0.51,-9.69,-0.22,-0.38,0.0,0.0,0.0,-8.82,0.51,-4.24
1738246887.213422,5440,0,0,,0.0,-0.81,0.28,0.49,0.15,0.61,2.45,-0.31,-10.86,0.85,0.21,0.0,0.0,0.0,-8.61,0.4,-4.66
1738246887.228692,5441,0,0,,0.0,-0.82,0.29,0.47,0.14,0.62,2.51,-0.17,-11.36,1.94,-3.05,0.0,0.0,0.0,-8.37,0.33,-5.08
1738246887.2469037,5442,0,0,,0.0,-0.84,0.29,0.44,0.14,0.51,2.92,0.0,-13.15,2.35,-3.73,0.0,0.0,0.0,-8.22,0.3,-5.32
1738246887.2635825,5443,0,0,,0.0,-0.84,0.3,0.43,0.13,0.28,3.24,0.08,-16.97,2.45,-3.73,0.0,0.0,0.0,-7.88,0.27,-5.82
1738246887.2790234,5444,0,0,,0.0,-0.85,0.3,0.4,0.12,0.09,3.2,0.08,-14.62,2.95,-4.84,0.0,0.0,0.0,-7.51,0.29,-6.29
1738246887.297356,5445,0,0,,0.0,-0.87,0.3,0.38,0.11,-0.41,2.97,0.18,-12.96,2.88,-4.72,0.0,0.0,0.0,-7.32,0.33,-6.5
1738246887.3136287,5446,0,0,,0.0,-0.87,0.3,0.37,0.1,-1.15,2.76,0.28,-11.29,1.92,-2.54,0.0,0.0,0.0,-6.96,0.49,-6.88
1738246887.329242,5447,0,0,,0.0,-0.88,0.31,0.36,0.08,-1.3,2.47,0.41,-12.38,-0.65,-1.98,0.0,0.0,0.0,-6.64,0.71,-7.17
1738246887.3473022,5448,0,0,,0.0,-0.88,0.31,0.34,0.07,-0.7,1.78,0.42,-10.72,-1.46,-2.88,0.0,0.0,0.0,-6.51,0.79,-7.28
1738246887.363927,5449,0,0,,0.0,-0.88,0.31,0.34,0.07,0.3,1.07,0.35,-8.63,0.0,-2.83,0.0,0.0,0.0,-6.33,0.82,-7.44
1738246887.3795524,5450,0,0,,0.0,-0.88,0.32,0.33,0.07,0.46,0.68,0.35,-7.23,0.03,-3.09,0.0,0.0,0.0,-6.25,0.79,-7.51
1738246887.3965685,5451,0,0,,0.0,-0.88,0.32,0.34,0.08,0.56,-0.09,0.31,-6.74,0.0,-3.04,0.0,0.0,0.0,-6.25,0.77,-7.5
1738246887.413885,5452,0,0,,0.0,-0.88,0.32,0.34,0.08,0.38,-0.79,0.18,-5.27,0.55,-3.18,0.0,0.0,0.0,-6.34,0.73,-7.44
1738246887.4292035,5453,0,0,,0.0,-0.88,0.32,0.35,0.08,0.16,-1.12,0.12,-4.95,0.15,-3.29,0.0,0.0,0.0,-6.52,0.73,-7.28
1738246887.4476256,5454,0,0,,0.0,-0.87,0.32,0.37,0.09,-0.18,-1.78,0.02,-5.13,-0.32,-2.94,0.0,0.0,0.0,-6.65,0.75,-7.16
1738246887.4639513,5455,0,0,,0.0,-0.87,0.32,0.38,0.09,-0.26,-2.4,-0.08,-5.38,-0.5,-3.08,0.0,0.0,0.0,-6.95,0.77,-6.86
1738246887.4793262,5456,0,0,,0.0,-0.86,0.31,0.4,0.1,-0.25,-2.69,-0.13,-5.48,-0.66,-3.13,0.0,0.0,0.0,-7.32,0.78,-6.47
1738246887.4972014,5457,0,0,,0.0,-0.84,0.31,0.43,0.11,-0.23,-3.2,-0.23,-5.71,-0.57,-3.3,0.0,0.0,0.0,-7.52,0.78,-6.23
1738246887.514353,5458,0,0,,0.0,-0.84,0.3,0.44,0.11,-0.31,-3.65,-0.32,-6.5,-0.2,-3.79,0.0,0.0,0.0,-7.93,0.77,-5.7
1738246887.529302,5459,0,0,,0.0,-0.82,0.29,0.48,0.12,-0.35,-3.87,-0.36,-7.19,-0.01,-4.3,0.0,0.0,0.0,-8.35,0.75,-5.07
1738246887.547452,5460,0,0,,0.0,-0.8,0.28,0.51,0.13,-0.39,-4.22,-0.4,-7.48,0.0,-4.7,0.0,0.0,0.0,-8.56,0.73,-4.72
1738246887.564332,5461,0,0,,0.0,-0.79,0.28,0.53,0.14,-0.57,-4.44,-0.41,-8.64,0.33,-5.47,0.0,0.0,0.0,-8.93,0.7,-3.97
1738246887.5794063,5462,0,0,,0.0,-0.77,0.26,0.56,0.15,-0.72,-4.52,-0.41,-9.76,0.56,-6.32,0.0,0.0,0.0,-9.25,0.69,-3.16
1738246887.5971942,5463,0,0,,0.0,-0.75,0.25,0.6,0.15,-0.98,-4.63,-0.4,-9.96,0.58,-6.49,0.0,0.0,0.0,-9.39,0.68,-2.73
1738246887.6141582,5464,0,0,,0.0,-0.73,0.24,0.62,0.16,-1.1,-4.65,-0.41,-10.35,0.61,-6.66,0.0,0.0,0.0,-9.6,0.65,-1.86
1738246887.6297271,5465,0,0,,0.0,-0.71,0.22,0.65,0.16,-1.08,-4.63,-0.42,-11.46,0.45,-6.76,0.0,0.0,0.0,-9.73,0.6,-0.99
1738246887.647325,5466,0,0,,0.0,-0.68,0.21,0.68,0.17,-0.96,-4.54,-0.44,-11.76,0.35,-6.51,0.0,0.0,0.0,-9.77,0.57,-0.55
1738246887.6644258,5467,0,0,,0.0,-0.67,0.2,0.7,0.17,-0.72,-4.38,-0.44,-12.54,0.79,-6.34,0.0,0.0,0.0,-9.79,0.49,0.29
1738246887.6793618,5468,0,0,,0.0,-0.64,0.19,0.72,0.18,-0.65,-4.26,-0.4,-12.48,0.83,-6.06,0.0,0.0,0.0,-9.73,0.41,1.08
1738246887.6972883,5469,0,0,,0.0,-0.61,0.17,0.75,0.18,-0.58,-3.95,-0.28,-11.98,0.62,-5.72,0.0,0.0,0.0,-9.68,0.37,1.46
1738246887.7141733,5470,0,0,,0.0,-0.6,0.17,0.76,0.18,-0.44,-3.55,-0.18,-11.77,0.55,-5.22,0.0,0.0,0.0,-9.56,0.32,2.14
1738246887.7293925,5471,0,0,,0.0,-0.58,0.16,0.78,0.19,-0.35,-3.32,-0.16,-11.7,0.06,-5.32,0.0,0.0,0.0,-9.41,0.27,2.73
1738246887.7476213,5472,0,0,,0.0,-0.56,0.15,0.79,0.19,-0.21,-2.82,-0.14,-11.54,-0.16,-5.16,0.0,0.0,0.0,-9.25,0.24,3.21
1738246887.7643356,5473,0,0,,0.0,-0.55,0.15,0.8,0.2,-0.01,-2.25,-0.15,-10.58,-0.29,-5.02,0.0,0.0,0.0,-9.18,0.23,3.42
1738246887.779723,5474,0,0,,0.0,-0.54,0.15,0.81,0.2,0.13,-1.94,-0.14,-9.27,0.29,-4.9,0.0,0.0,0.0,-9.06,0.22,3.73
1738246887.796956,5475,0,0,,0.0,-0.53,0.15,0.81,0.2,0.3,-1.25,-0.06,-8.56,0.79,-5.33,0.0,0.0,0.0,-9.01,0.22,3.84
1738246887.8146806,5476,0,0,,0.0,-0.53,0.15,0.81,0.2,0.26,-0.48,0.07,-8.4,1.24,-5.09,0.0,0.0,0.0,-8.96,0.25,3.95
1738246887.8293774,5477,0,0,,0.0,-0.53,0.15,0.81,0.2,0.18,-0.12,0.11,-8.89,1.09,-5.54,0.0,0.0,0.0,-8.97,0.28,3.94
1738246887.847277,5478,0,0,,0.0,-0.53,0.15,0.81,0.2,-0.06,0.55,0.16,-8.93,0.89,-5.53,0.0,0.0,0.0,-8.99,0.29,3.9
1738246887.864525,5479,0,0,,0.0,-0.54,0.15,0.81,0.2,-0.23,1.04,0.14,-11.23,0.78,3.85,0.0,0.0,0.0,-9.06,0.3,3.73
1738246887.8795888,5480,0,0,,0.0,-0.54,0.15,0.8,0.2,-0.13,0.92,0.11,-19.64,-2.63,24.33,0.0,0.0,0.0,-9.09,0.32,3.64
1738246887.8976035,5481,0,0,,0.0,-0.54,0.16,0.81,0.2,0.23,-0.41,0.05,-17.29,-3.33,13.65,0.0,0.0,0.0,-9.08,0.33,3.67
1738246887.9143915,5482,0,0,,0.0,-0.53,0.16,0.81,0.2,0.5,0.03,0.43,-5.63,0.51,-6.01,0.0,0.0,0.0,-9.06,0.43,3.7
1738246887.9293408,5483,0,0,,0.0,-0.54,0.16,0.8,0.2,0.04,0.62,0.21,-11.86,-0.26,4.41,0.0,0.0,0.0,-9.1,0.49,3.6
1738246887.9472408,5484,0,0,,0.0,-0.54,0.16,0.8,0.19,-0.31,0.65,0.28,-10.95,0.39,0.79,0.0,0.0,0.0,-9.12,0.5,3.54
1738246887.9645145,5485,0,0,,0.0,-0.55,0.16,0.8,0.19,-0.77,0.6,0.24,-9.4,-0.1,3.51,0.0,0.0,0.0,-9.16,0.5,3.44
1738246887.9795594,5486,0,0,,0.0,-0.55,0.16,0.8,0.18,-0.23,0.6,0.32,-8.52,-0.33,3.48,0.0,0.0,0.0,-9.2,0.53,3.34
1738246887.9977438,5487,0,0,,0.0,-0.56,0.16,0.8,0.18,-0.02,0.67,0.34,-8.69,0.43,2.57,0.0,0.0,0.0,-9.24,0.59,3.22
1738246888.0154939,5488,0,0,,0.0,-0.56,0.16,0.79,0.18,0.16,0.64,0.27,-9.22,0.53,3.67,0.0,0.0,0.0,-9.26,0.61,3.16
1738246888.029824,5489,0,0,,0.0,-0.56,0.17,0.79,0.18,0.45,0.63,0.32,-9.23,0.86,2.11,0.0,0.0,0.0,-9.29,0.69,3.05
1738246888.0470889,5490,0,0,,0.0,-0.57,0.18,0.79,0.17,0.47,0.68,0.32,-9.35,1.51,2.31,0.0,0.0,0.0,-9.32,0.78,2.92
1738246888.0652897,5491,0,0,,0.0,-0.57,0.18,0.78,0.17,0.14,0.69,0.33,-9.13,1.47,2.61,0.0,0.0,0.0,-9.34,0.81,2.85
1738246888.0801747,5492,0,0,,0.0,-0.57,0.18,0.78,0.17,-0.14,0.68,0.36,-9.44,1.3,1.65,0.0,0.0,0.0,-9.37,0.87,2.73
1738246888.0977335,5493,0,0,,0.0,-0.58,0.18,0.78,0.16,-0.26,0.67,0.35,-9.69,1.23,1.86,0.0,0.0,0.0,-9.4,0.92,2.62
1738246888.1149852,5494,0,0,,0.0,-0.58,0.18,0.78,0.16,-0.43,0.61,0.33,-9.75,0.82,0.99,0.0,0.0,0.0,-9.41,0.93,2.57
1738246888.130018,5495,0,0,,0.0,-0.58,0.18,0.78,0.15,-0.33,0.57,0.3,-10.15,0.06,0.82,0.0,0.0,0.0,-9.43,0.97,2.47
1738246888.147897,5496,0,0,,0.0,-0.59,0.18,0.77,0.15,-0.21,0.55,0.28,-10.27,-0.15,1.1,0.0,0.0,0.0,-9.45,1.02,2.37
1738246888.1650043,5497,0,0,,0.0,-0.59,0.18,0.77,0.15,0.07,0.49,0.24,-10.15,-0.21,1.05,0.0,0.0,0.0,-9.46,1.04,2.33
1738246888.1798074,5498,0,0,,0.0,-0.59,0.19,0.77,0.15,0.23,0.51,0.2,-9.87,0.68,1.4,0.0,0.0,0.0,-9.48,1.09,2.23
1738246888.197106,5499,0,0,,0.0,-0.6,0.19,0.77,0.15,0.23,0.52,0.18,-9.99,0.69,2.23,0.0,0.0,0.0,-9.5,1.13,2.13
1738246888.2146878,5500,0,0,,0.0,-0.6,0.19,0.76,0.15,0.24,0.51,0.15,-9.39,0.81,1.96,0.0,0.0,0.0,-9.51,1.15,2.08
1738246888.2299647,5501,0,0,,0.0,-0.6,0.2,0.76,0.15,0.4,0.57,0.12,-9.0,1.17,1.38,0.0,0.0,0.0,-9.53,1.18,1.97
1738246888.2471673,5502,0,0,,0.0,-0.6,0.2,0.76,0.15,0.46,0.6,0.1,-9.19,1.14,1.85,0.0,0.0,0.0,-9.54,1.2,1.91
1738246888.2651117,5503,0,0,,0.0,-0.61,0.2,0.75,0.15,0.53,0.58,0.07,-9.29,1.27,1.68,0.0,0.0,0.0,-9.56,1.24,1.79
1738246888.2808607,5504,0,0,,0.0,-0.61,0.21,0.75,0.15,0.51,0.58,0.07,-9.38,1.21,1.12,0.0,0.0,0.0,-9.57,1.27,1.67
1738246888.2976568,5505,0,0,,0.0,-0.61,0.21,0.75,0.15,0.48,0.59,0.07,-9.73,1.0,1.28,0.0,0.0,0.0,-9.59,1.29,1.55
1738246888.3152132,5506,0,0,,0.0,-0.61,0.22,0.74,0.15,0.42,0.57,0.07,-9.74,0.9,0.78,0.0,0.0,0.0,-9.6,1.31,1.49
1738246888.3301392,5507,0,0,,0.0,-0.62,0.22,0.74,0.15,0.4,0.56,0.08,-9.83,0.56,0.48,0.0,0.0,0.0,-9.61,1.33,1.38
1738246888.3483064,5508,0,0,,0.0,-0.62,0.22,0.74,0.15,0.41,0.56,0.08,-9.95,0.46,0.84,0.0,0.0,0.0,-9.62,1.36,1.26
1738246888.365966,5509,0,0,,0.0,-0.62,0.23,0.73,0.15,0.42,0.56,0.08,-9.73,0.95,0.48,0.0,0.0,0.0,-9.63,1.37,1.2
1738246888.3809674,5510,0,0,,0.0,-0.63,0.23,0.73,0.15,0.31,0.57,0.09,-9.77,1.09,0.58,0.0,0.0,0.0,-9.64,1.39,1.09
1738246888.3979235,5511,0,0,,0.0,-0.63,0.23,0.73,0.15,0.25,0.54,0.08,-9.93,1.12,0.9,0.0,0.0,0.0,-9.65,1.41,0.98
1738246888.414787,5512,0,0,,0.0,-0.63,0.23,0.72,0.15,0.12,0.53,0.09,-9.54,1.21,0.06,0.0,0.0,0.0,-9.65,1.42,0.93
1738246888.429853,5513,0,0,,0.0,-0.63,0.24,0.72,0.15,0.07,0.56,0.09,-9.83,1.01,0.8,0.0,0.0,0.0,-9.66,1.44,0.82
1738246888.4469767,5514,0,0,,0.0,-0.64,0.24,0.72,0.15,0.09,0.54,0.08,-9.79,1.12,0.74,0.0,0.0,0.0,-9.66,1.44,0.77
1738246888.4651058,5515,0,0,,0.0,-0.64,0.24,0.72,0.15,0.07,0.54,0.08,-9.41,1.47,0.11,0.0,0.0,0.0,-9.67,1.46,0.67
1738246888.48007,5516,0,0,,0.0,-0.64,0.24,0.71,0.15,0.03,0.58,0.07,-9.72,1.35,0.39,0.0,0.0,0.0,-9.67,1.47,0.56
1738246888.497263,5517,0,0,,0.0,-0.65,0.24,0.71,0.15,0.03,0.56,0.07,-9.89,1.23,0.78,0.0,0.0,0.0,-9.68,1.48,0.5
1738246888.514112,5518,0,0,,0.0,-0.65,0.24,0.71,0.15,0.05,0.57,0.07,-9.45,1.08,-0.14,0.0,0.0,0.0,-9.68,1.49,0.4
1738246888.529489,5519,0,0,,0.0,-0.65,0.24,0.7,0.14,0.08,0.59,0.06,-9.97,1.01,0.43,0.0,0.0,0.0,-9.68,1.5,0.28
1738246888.5473816,5520,0,0,,0.0,-0.66,0.25,0.7,0.14,0.13,0.58,0.04,-9.79,1.26,0.03,0.0,0.0,0.0,-9.68,1.5,0.22
1738246888.5643752,5521,0,0,,0.0,-0.66,0.25,0.7,0.14,0.12,0.61,0.04,-9.52,1.3,-0.41,0.0,0.0,0.0,-9.68,1.51,0.11
1738246888.5796947,5522,0,0,,0.0,-0.66,0.25,0.69,0.14,0.12,0.61,0.04,-10.03,1.13,0.2,0.0,0.0,0.0,-9.68,1.52,0.0
1738246888.5971456,5523,0,0,,0.0,-0.67,0.25,0.69,0.14,0.12,0.65,0.02,-9.83,1.24,-0.08,0.0,0.0,0.0,-9.68,1.52,-0.07
1738246888.6139338,5524,0,0,,0.0,-0.67,0.25,0.69,0.14,0.16,0.66,0.01,-9.61,1.11,-0.53,0.0,0.0,0.0,-9.68,1.51,-0.19
1738246888.6298056,5525,0,0,,0.0,-0.67,0.25,0.68,0.14,0.16,0.66,0.01,-9.74,1.12,-0.32,0.0,0.0,0.0,-9.68,1.51,-0.33
1738246888.6475782,5526,0,0,,0.0,-0.68,0.26,0.68,0.14,0.21,0.74,-0.01,-9.77,1.16,-0.11,0.0,0.0,0.0,-9.68,1.51,-0.4
1738246888.665108,5527,0,0,,0.0,-0.68,0.26,0.67,0.14,0.25,0.78,-0.02,-9.75,1.24,-0.49,0.0,0.0,0.0,-9.67,1.5,-0.55
1738246888.6803012,5528,0,0,,0.0,-0.69,0.26,0.67,0.14,0.26,0.83,-0.02,-10.05,1.26,-0.75,0.0,0.0,0.0,-9.66,1.49,-0.72
1738246888.697852,5529,0,0,,0.0,-0.69,0.26,0.66,0.14,0.31,0.91,-0.04,-10.03,1.24,-0.54,0.0,0.0,0.0,-9.65,1.49,-0.81
1738246888.715344,5530,0,0,,0.0,-0.69,0.26,0.66,0.14,0.37,0.94,-0.05,-10.19,1.16,-1.08,0.0,0.0,0.0,-9.64,1.47,-0.99
1738246888.729794,5531,0,0,,0.0,-0.7,0.27,0.65,0.14,0.39,1.03,-0.07,-10.47,0.78,-0.69,0.0,0.0,0.0,-9.62,1.45,-1.19
1738246888.7475734,5532,0,0,,0.0,-0.71,0.27,0.64,0.14,0.4,1.07,-0.1,-10.24,1.08,-1.15,0.0,0.0,0.0,-9.61,1.44,-1.29
1738246888.7652037,5533,0,0,,0.0,-0.71,0.27,0.63,0.14,0.4,1.15,-0.13,-10.49,0.82,-1.46,0.0,0.0,0.0,-9.58,1.4,-1.51
1738246888.7800117,5534,0,0,,0.0,-0.72,0.27,0.62,0.14,0.42,1.26,-0.17,-10.79,0.17,-0.78,0.0,0.0,0.0,-9.55,1.36,-1.75
1738246888.7972717,5535,0,0,,0.0,-0.72,0.28,0.61,0.14,0.47,1.27,-0.21,-10.53,1.37,-1.95,0.0,0.0,0.0,-9.53,1.33,-1.88
1738246888.8141253,5536,0,0,,0.0,-0.73,0.28,0.61,0.14,0.36,1.44,-0.3,-11.45,0.42,-0.94,0.0,0.0,0.0,-9.48,1.26,-2.14
1738246888.8298793,5537,0,0,,0.0,-0.74,0.28,0.6,0.14,0.27,1.46,-0.33,-10.07,0.53,-2.46,0.0,0.0,0.0,-9.42,1.19,-2.42
1738246888.8476539,5538,0,0,,0.0,-0.75,0.28,0.58,0.14,0.36,1.58,-0.36,-10.7,0.41,-1.77,0.0,0.0,0.0,-9.39,1.15,-2.56
1738246888.865734,5539,0,0,,0.0,-0.75,0.28,0.58,0.14,0.35,1.7,-0.48,-10.66,1.04,-1.93,0.0,0.0,0.0,-9.31,1.05,-2.88
1738246888.8802416,5540,0,0,,0.0,-0.76,0.28,0.56,0.14,0.29,1.89,-0.54,-10.5,0.17,-0.63,0.0,0.0,0.0,-9.21,0.93,-3.21
1738246888.897932,5541,0,0,,0.0,-0.78,0.28,0.54,0.14,0.32,1.94,-0.55,-10.28,0.09,-0.73,0.0,0.0,0.0,-9.15,0.88,-3.39
1738246888.914932,5542,0,0,,0.0,-0.78,0.28,0.54,0.14,0.44,2.2,-0.51,-10.4,-0.73,-0.26,0.0,0.0,0.0,-9.01,0.76,-3.77
1738246888.929987,5543,0,0,,0.0,-0.79,0.29,0.51,0.14,0.52,2.48,-0.46,-10.86,-1.2,0.64,0.0,0.0,0.0,-8.84,0.63,-4.19
1738246888.9478352,5544,0,0,,0.0,-0.81,0.29,0.49,0.14,0.55,2.6,-0.41,-11.3,-0.96,1.07,0.0,0.0,0.0,-8.73,0.58,-4.42
1738246888.96523,5545,0,0,,0.0,-0.81,0.29,0.48,0.14,0.65,2.71,-0.17,-11.58,-0.15,-0.57,0.0,0.0,0.0,-8.49,0.48,-4.87
1738246888.980658,5546,0,0,,0.0,-0.83,0.3,0.46,0.14,0.59,2.99,-0.1,-13.22,3.45,-5.23,0.0,0.0,0.0,-8.21,0.4,-5.34
1738246888.9981256,5547,0,0,,0.0,-0.84,0.3,0.43,0.13,0.5,3.25,0.0,-17.23,3.39,-4.78,0.0,0.0,0.0,-7.85,0.37,-5.85
1738246889.0157583,5548,0,0,,0.0,-0.85,0.31,0.42,0.13,-0.15,3.23,0.1,-16.43,3.56,-5.71,0.0,0.0,0.0,-7.66,0.39,-6.09
1738246889.0313303,5549,0,0,,0.0,-0.86,0.31,0.39,0.11,-0.81,3.11,0.09,-10.98,2.35,-3.53,0.0,0.0,0.0,-7.28,0.48,-6.54
1738246889.0485222,5550,0,0,,0.0,-0.87,0.31,0.37,0.09,-1.19,3.04,0.13,-11.72,1.09,-3.51,0.0,0.0,0.0,-6.9,0.67,-6.93
1738246889.0665538,5551,0,0,,0.0,-0.88,0.31,0.36,0.08,-1.11,2.49,0.32,-12.53,-2.19,-3.44,0.0,0.0,0.0,-6.72,0.77,-7.09
1738246889.082405,5552,0,0,,0.0,-0.88,0.31,0.35,0.07,0.09,1.89,0.27,-10.1,0.37,-3.31,0.0,0.0,0.0,-6.44,0.83,-7.34
1738246889.0993886,5553,0,0,,0.0,-0.89,0.32,0.33,0.07,0.32,1.56,0.24,-7.3,1.08,-2.77,0.0,0.0,0.0,-6.24,0.81,-7.52
1738246889.1170719,5554,0,0,,0.0,-0.89,0.32,0.33,0.07,0.31,0.77,0.2,-6.67,0.9,-2.64,0.0,0.0,0.0,-6.18,0.8,-7.56
1738246889.1333916,5555,0,0,,0.0,-0.89,0.32,0.33,0.07,0.26,-0.04,0.08,-5.09,1.11,-2.43,0.0,0.0,0.0,-6.15,0.77,-7.59
1738246889.1498132,5556,0,0,,0.0,-0.88,0.32,0.33,0.08,0.19,-0.42,0.01,-4.5,0.43,-2.27,0.0,0.0,0.0,-6.24,0.75,-7.52
1738246889.168166,5557,0,0,,0.0,-0.88,0.32,0.34,0.08,-0.03,-1.19,-0.09,-4.43,-0.16,-2.16,0.0,0.0,0.0,-6.33,0.75,-7.44
1738246889.1854384,5558,0,0,,0.0,-0.88,0.32,0.35,0.08,-0.01,-1.94,-0.15,-4.12,0.04,-2.29,0.0,0.0,0.0,-6.58,0.73,-7.22
1738246889.200672,5559,0,0,,0.0,-0.87,0.31,0.37,0.09,-0.02,-2.63,-0.19,-4.16,0.04,-2.54,0.0,0.0,0.0,-6.92,0.71,-6.9
1738246889.218352,5560,0,0,,0.0,-0.86,0.31,0.4,0.1,-0.05,-2.93,-0.2,-4.42,0.15,-2.63,0.0,0.0,0.0,-7.32,0.7,-6.47
1738246889.2351289,5561,0,0,,0.0,-0.85,0.3,0.41,0.11,-0.23,-3.48,-0.22,-5.35,0.03,-3.28,0.0,0.0,0.0,-7.54,0.69,-6.22
1738246889.2503161,5562,0,0,,0.0,-0.84,0.3,0.45,0.12,-0.43,-3.95,-0.26,-5.99,-0.02,-3.85,0.0,0.0,0.0,-7.98,0.7,-5.64
1738246889.2684195,5563,0,0,,0.0,-0.82,0.29,0.48,0.12,-0.47,-4.14,-0.29,-6.32,0.0,-4.15,0.0,0.0,0.0,-8.42,0.7,-4.96
1738246889.2857437,5564,0,0,,0.0,-0.81,0.28,0.5,0.13,-0.52,-4.47,-0.32,-7.68,0.12,-5.12,0.0,0.0,0.0,-8.63,0.7,-4.59
1738246889.3016093,5565,0,0,,0.0,-0.79,0.27,0.54,0.14,-0.65,-4.7,-0.33,-8.8,0.63,-5.62,0.0,0.0,0.0,-9.01,0.69,-3.79
1738246889.3185284,5566,0,0,,0.0,-0.76,0.26,0.57,0.15,-0.77,-4.8,-0.33,-9.25,0.59,-5.83,0.0,0.0,0.0,-9.33,0.69,-2.91
1738246889.3365514,5567,0,0,,0.0,-0.75,0.25,0.59,0.15,-0.96,-4.95,-0.35,-9.96,0.35,-6.15,0.0,0.0,0.0,-9.46,0.68,-2.46
1738246889.3520591,5568,0,0,,0.0,-0.72,0.23,0.63,0.16,-1.0,-5.02,-0.43,-11.84,-0.19,-5.98,0.0,0.0,0.0,-9.66,0.64,-1.52
1738246889.3690972,5569,0,0,,0.0,-0.69,0.22,0.67,0.17,-0.94,-5.02,-0.49,-12.43,-0.34,-5.92,0.0,0.0,0.0,-9.77,0.56,-0.56
1738246889.386592,5570,0,0,,0.0,-0.68,0.21,0.68,0.17,-0.66,-4.95,-0.58,-14.1,0.42,-6.33,0.0,0.0,0.0,-9.79,0.51,-0.09
1738246889.402043,5571,0,0,,0.0,-0.65,0.19,0.71,0.18,-0.49,-4.7,-0.59,-14.44,0.52,-6.74,0.0,0.0,0.0,-9.76,0.4,0.81
1738246889.4196684,5572,0,0,,0.0,-0.62,0.18,0.74,0.19,-0.42,-4.5,-0.55,-12.92,0.88,-6.74,0.0,0.0,0.0,-9.66,0.29,1.64
1738246889.4377148,5573,0,0,,0.0,-0.59,0.17,0.76,0.2,-0.42,-3.97,-0.4,-12.37,0.8,-6.39,0.0,0.0,0.0,-9.59,0.24,2.01
1738246889.4540172,5574,0,0,,0.0,-0.58,0.16,0.77,0.2,-0.41,-3.34,-0.3,-11.8,0.04,-5.43,0.0,0.0,0.0,-9.43,0.16,2.65
1738246889.470534,5575,0,0,,0.0,-0.56,0.15,0.79,0.2,-0.36,-3.03,-0.28,-11.23,-0.33,-4.84,0.0,0.0,0.0,-9.27,0.1,3.18
1738246889.4878538,5576,0,0,,0.0,-0.54,0.15,0.8,0.21,-0.09,-2.42,-0.25,-10.46,-0.44,-4.36,0.0,0.0,0.0,-9.19,0.07,3.39
1738246889.504321,5577,0,0,,0.0,-0.54,0.14,0.8,0.21,0.21,-1.8,-0.18,-9.4,-0.03,-3.9,0.0,0.0,0.0,-9.06,0.05,3.74
1738246889.5207949,5578,0,0,,0.0,-0.53,0.14,0.81,0.21,0.37,-1.15,-0.06,-8.71,0.36,-3.48,0.0,0.0,0.0,-8.96,0.06,3.97
1738246889.5378811,5579,0,0,,0.0,-0.52,0.14,0.81,0.22,0.35,-0.82,-0.01,-8.67,0.49,-3.3,0.0,0.0,0.0,-8.93,0.07,4.04
1738246889.5539718,5580,0,0,,0.0,-0.52,0.15,0.81,0.22,0.2,-0.16,0.06,-8.46,1.0,-3.73,0.0,0.0,0.0,-8.9,0.1,4.09
1738246889.570631,5581,0,0,,0.0,-0.52,0.15,0.81,0.22,-0.09,0.51,0.11,-8.88,0.8,-3.69,0.0,0.0,0.0,-8.93,0.11,4.03
1738246889.5882137,5582,0,0,,0.0,-0.53,0.15,0.81,0.21,-0.23,0.8,0.14,-9.56,0.41,-2.38,0.0,0.0,0.0,-8.96,0.12,3.96
1738246889.6041121,5583,0,0,,0.0,-0.53,0.15,0.81,0.21,-0.39,1.17,0.16,-10.6,0.35,1.25,0.0,0.0,0.0,-9.04,0.12,3.77
1738246889.6204054,5584,0,0,,0.0,-0.54,0.15,0.8,0.21,-0.14,0.79,0.14,-18.28,-3.12,20.85,0.0,0.0,0.0,-9.11,0.13,3.6
1738246889.6380453,5585,0,0,,0.0,-0.54,0.15,0.8,0.21,0.15,0.0,0.07,-14.47,-2.17,9.41,0.0,0.0,0.0,-9.11,0.14,3.6
1738246889.654368,5586,0,0,,0.0,-0.54,0.15,0.8,0.2,0.15,-0.15,0.4,-6.37,0.01,-5.07,0.0,0.0,0.0,-9.1,0.2,3.64
1738246889.6708217,5587,0,0,,0.0,-0.54,0.15,0.8,0.2,0.01,0.68,0.23,-11.81,-0.22,4.51,0.0,0.0,0.0,-9.13,0.25,3.56
1738246889.688488,5588,0,0,,0.0,-0.55,0.15,0.8,0.2,-0.13,0.77,0.3,-11.62,-0.33,2.77,0.0,0.0,0.0,-9.15,0.27,3.49
1738246889.7040417,5589,0,0,,0.0,-0.55,0.15,0.8,0.19,-0.74,0.82,0.44,-9.54,-0.02,1.77,0.0,0.0,0.0,-9.21,0.31,3.35
1738246889.720713,5590,0,0,,0.0,-0.56,0.15,0.79,0.18,-0.61,0.7,0.33,-9.28,-0.67,3.16,0.0,0.0,0.0,-9.25,0.33,3.22
1738246889.7378457,5591,0,0,,0.0,-0.56,0.15,0.79,0.18,-0.48,0.66,0.38,-9.12,-0.29,2.2,0.0,0.0,0.0,-9.27,0.35,3.16
1738246889.7534606,5592,0,0,,0.0,-0.57,0.15,0.79,0.18,-0.09,0.68,0.42,-8.93,0.83,2.29,0.0,0.0,0.0,-9.31,0.42,3.04
1738246889.7707863,5593,0,0,,0.0,-0.57,0.16,0.79,0.17,0.07,0.63,0.37,-9.63,-0.36,2.24,0.0,0.0,0.0,-9.34,0.49,2.93
1738246889.7877333,5594,0,0,,0.0,-0.57,0.16,0.78,0.17,0.35,0.51,0.39,-9.74,-0.3,2.04,0.0,0.0,0.0,-9.35,0.54,2.89
1738246889.8034563,5595,0,0,,0.0,-0.57,0.17,0.78,0.17,0.42,0.55,0.4,-9.65,0.48,2.53,0.0,0.0,0.0,-9.37,0.64,2.78
1738246889.8208458,5596,0,0,,0.0,-0.58,0.17,0.78,0.17,0.05,0.56,0.4,-9.38,0.49,2.23,0.0,0.0,0.0,-9.4,0.72,2.68
1738246889.8378773,5597,0,0,,0.0,-0.58,0.17,0.78,0.16,-0.1,0.56,0.42,-9.22,1.01,1.64,0.0,0.0,0.0,-9.41,0.75,2.63
1738246889.8537354,5598,0,0,,0.0,-0.58,0.17,0.78,0.16,-0.34,0.59,0.42,-9.82,1.16,2.02,0.0,0.0,0.0,-9.43,0.81,2.53
1738246889.8718693,5599,0,0,,0.0,-0.59,0.17,0.78,0.15,-0.47,0.54,0.4,-9.66,0.66,1.54,0.0,0.0,0.0,-9.45,0.87,2.43
1738246889.888059,5600,0,0,,0.0,-0.59,0.17,0.77,0.15,-0.41,0.51,0.38,-9.65,0.51,1.24,0.0,0.0,0.0,-9.46,0.89,2.39
1738246889.903534,5601,0,0,,0.0,-0.59,0.17,0.77,0.15,-0.13,0.5,0.33,-10.05,0.2,1.89,0.0,0.0,0.0,-9.48,0.95,2.3
1738246889.9210536,5602,0,0,,0.0,-0.6,0.18,0.77,0.14,0.12,0.46,0.28,-9.85,0.3,1.63,0.0,0.0,0.0,-9.49,1.0,2.21
1738246889.937953,5603,0,0,,0.0,-0.6,0.18,0.77,0.14,0.19,0.46,0.26,-9.67,0.65,1.13,0.0,0.0,0.0,-9.5,1.03,2.17
1738246889.9530015,5604,0,0,,0.0,-0.6,0.18,0.77,0.14,0.25,0.51,0.22,-9.9,0.74,1.83,0.0,0.0,0.0,-9.52,1.08,2.07
1738246889.9707413,5605,0,0,,0.0,-0.6,0.19,0.76,0.14,0.28,0.51,0.2,-9.5,0.78,1.8,0.0,0.0,0.0,-9.53,1.13,1.97
1738246889.9877684,5606,0,0,,0.0,-0.61,0.19,0.76,0.14,0.36,0.52,0.16,-9.25,0.91,1.37,0.0,0.0,0.0,-9.54,1.15,1.92
1738246890.0029216,5607,0,0,,0.0,-0.61,0.19,0.76,0.14,0.51,0.57,0.13,-9.44,0.88,2.09,0.0,0.0,0.0,-9.56,1.19,1.8
1738246890.0200214,5608,0,0,,0.0,-0.61,0.2,0.75,0.14,0.57,0.56,0.1,-9.38,1.21,1.22,0.0,0.0,0.0,-9.57,1.23,1.69
1738246890.0376508,5609,0,0,,0.0,-0.61,0.21,0.75,0.14,0.59,0.56,0.09,-9.48,1.26,0.71,0.0,0.0,0.0,-9.58,1.25,1.63
1738246890.0528603,5610,0,0,,0.0,-0.62,0.21,0.75,0.15,0.52,0.54,0.08,-9.94,0.71,1.22,0.0,0.0,0.0,-9.6,1.28,1.51
1738246890.070212,5611,0,0,,0.0,-0.62,0.21,0.74,0.15,0.52,0.5,0.07,-9.68,0.95,0.45,0.0,0.0,0.0,-9.61,1.31,1.41
1738246890.088234,5612,0,0,,0.0,-0.62,0.22,0.74,0.15,0.5,0.48,0.08,-9.74,0.75,0.43,0.0,0.0,0.0,-9.62,1.32,1.36
1738246890.1028225,5613,0,0,,0.0,-0.62,0.22,0.74,0.15,0.51,0.49,0.06,-9.99,0.58,1.46,0.0,0.0,0.0,-9.63,1.35,1.25
1738246890.120134,5614,0,0,,0.0,-0.62,0.22,0.73,0.15,0.51,0.46,0.05,-9.44,1.05,0.8,0.0,0.0,0.0,-9.64,1.37,1.15
1738246890.1372612,5615,0,0,,0.0,-0.63,0.23,0.73,0.15,0.52,0.51,0.05,-9.38,1.2,0.29,0.0,0.0,0.0,-9.64,1.38,1.1
1738246890.152867,5616,0,0,,0.0,-0.63,0.23,0.73,0.15,0.46,0.57,0.03,-9.76,1.16,0.9,0.0,0.0,0.0,-9.65,1.4,0.98
1738246890.1705937,5617,0,0,,0.0,-0.63,0.24,0.72,0.15,0.43,0.55,0.03,-9.82,1.1,0.77,0.0,0.0,0.0,-9.66,1.41,0.87
1738246890.187775,5618,0,0,,0.0,-0.64,0.24,0.72,0.15,0.37,0.57,0.02,-9.74,1.23,0.32,0.0,0.0,0.0,-9.66,1.42,0.81
1738246890.2031398,5619,0,0,,0.0,-0.64,0.24,0.72,0.16,0.34,0.58,0.01,-9.73,1.15,0.21,0.0,0.0,0.0,-9.67,1.42,0.69
1738246890.220412,5620,0,0,,0.0,-0.64,0.24,0.71,0.16,0.3,0.57,0.01,-9.78,1.22,0.14,0.0,0.0,0.0,-9.68,1.43,0.57
1738246890.2376375,5621,0,0,,0.0,-0.65,0.25,0.71,0.16,0.19,0.57,0.02,-9.6,1.31,0.1,0.0,0.0,0.0,-9.68,1.43,0.52
1738246890.2532077,5622,0,0,,0.0,-0.65,0.25,0.71,0.15,0.1,0.56,0.01,-9.59,1.32,0.09,0.0,0.0,0.0,-9.69,1.43,0.41
1738246890.270736,5623,0,0,,0.0,-0.65,0.25,0.7,0.15,0.06,0.56,0.01,-9.61,1.17,-0.33,0.0,0.0,0.0,-9.69,1.43,0.3
1738246890.2880883,5624,0,0,,0.0,-0.65,0.25,0.7,0.15,0.05,0.59,0.01,-9.65,1.11,-0.37,0.0,0.0,0.0,-9.69,1.43,0.24
1738246890.3037524,5625,0,0,,0.0,-0.66,0.25,0.7,0.15,0.13,0.58,-0.01,-9.76,1.17,0.18,0.0,0.0,0.0,-9.69,1.43,0.13
1738246890.320384,5626,0,0,,0.0,-0.66,0.25,0.69,0.15,0.14,0.57,-0.01,-9.59,1.19,-0.79,0.0,0.0,0.0,-9.7,1.43,0.01
1738246890.3381,5627,0,0,,0.0,-0.66,0.25,0.69,0.15,0.12,0.63,-0.01,-9.71,1.16,-0.38,0.0,0.0,0.0,-9.7,1.43,-0.04
1738246890.3528903,5628,0,0,,0.0,-0.67,0.25,0.68,0.15,0.15,0.63,-0.03,-9.79,1.19,-0.24,0.0,0.0,0.0,-9.7,1.43,-0.16
1738246890.3707001,5629,0,0,,0.0,-0.67,0.26,0.68,0.15,0.17,0.61,-0.03,-9.71,1.15,-1.1,0.0,0.0,0.0,-9.69,1.42,-0.29
1738246890.3881714,5630,0,0,,0.0,-0.67,0.26,0.68,0.15,0.19,0.65,-0.03,-9.71,1.13,-1.15,0.0,0.0,0.0,-9.69,1.41,-0.35
1738246890.4033377,5631,0,0,,0.0,-0.68,0.26,0.67,0.15,0.22,0.67,-0.05,-9.83,1.14,-0.54,0.0,0.0,0.0,-9.69,1.4,-0.48
1738246890.4209018,5632,0,0,,0.0,-0.68,0.26,0.67,0.15,0.23,0.67,-0.05,-9.86,1.05,-0.78,0.0,0.0,0.0,-9.68,1.39,-0.62
1738246890.4386816,5633,0,0,,0.0,-0.69,0.26,0.66,0.15,0.24,0.72,-0.04,-10.31,0.88,-0.38,0.0,0.0,0.0,-9.68,1.38,-0.69
1738246890.4533548,5634,0,0,,0.0,-0.69,0.26,0.66,0.15,0.28,0.76,-0.06,-10.17,0.91,-0.73,0.0,0.0,0.0,-9.67,1.37,-0.84
1738246890.4708433,5635,0,0,,0.0,-0.69,0.27,0.65,0.15,0.32,0.79,-0.06,-10.16,0.71,-1.21,0.0,0.0,0.0,-9.66,1.35,-0.99
1738246890.4879797,5636,0,0,,0.0,-0.7,0.27,0.65,0.15,0.35,0.86,-0.06,-10.4,0.67,-0.76,0.0,0.0,0.0,-9.65,1.34,-1.08
1738246890.50375,5637,0,0,,0.0,-0.7,0.27,0.64,0.15,0.33,0.9,-0.09,-10.38,0.56,-1.43,0.0,0.0,0.0,-9.63,1.32,-1.25
1738246890.5216231,5638,0,0,,0.0,-0.71,0.27,0.63,0.15,0.28,0.98,-0.12,-10.62,0.53,-1.5,0.0,0.0,0.0,-9.61,1.29,-1.44
1738246890.5382864,5639,0,0,,0.0,-0.71,0.28,0.63,0.15,0.28,1.03,-0.14,-10.82,0.47,-0.63,0.0,0.0,0.0,-9.59,1.27,-1.54
1738246890.5534134,5640,0,0,,0.0,-0.72,0.28,0.62,0.15,0.29,1.07,-0.19,-10.24,0.79,-1.37,0.0,0.0,0.0,-9.57,1.23,-1.74
1738246890.5710948,5641,0,0,,0.0,-0.72,0.28,0.61,0.15,0.29,1.11,-0.19,-10.51,0.18,-1.39,0.0,0.0,0.0,-9.53,1.17,-1.95
1738246890.5883503,5642,0,0,,0.0,-0.73,0.28,0.6,0.16,0.4,1.22,-0.27,-10.77,0.65,-1.08,0.0,0.0,0.0,-9.51,1.14,-2.07
1738246890.6034508,5643,0,0,,0.0,-0.73,0.28,0.6,0.16,0.37,1.33,-0.36,-10.99,0.93,-0.79,0.0,0.0,0.0,-9.46,1.06,-2.32
1738246890.6213388,5644,0,0,,0.0,-0.74,0.28,0.59,0.16,0.29,1.3,-0.36,-9.6,0.59,-2.67,0.0,0.0,0.0,-9.41,0.98,-2.57
1738246890.638574,5645,0,0,,0.0,-0.75,0.28,0.57,0.16,0.34,1.43,-0.38,-9.82,0.49,-2.16,0.0,0.0,0.0,-9.37,0.94,-2.7
1738246890.6532855,5646,0,0,,0.0,-0.76,0.28,0.57,0.16,0.28,1.46,-0.48,-9.4,0.93,-2.32,0.0,0.0,0.0,-9.3,0.84,-2.97
1738246890.6710675,5647,0,0,,0.0,-0.77,0.28,0.56,0.16,-0.01,1.56,-0.52,-9.4,0.14,-1.99,0.0,0.0,0.0,-9.22,0.74,-3.25
1738246890.6890326,5648,0,0,,0.0,-0.78,0.28,0.54,0.15,-0.12,1.6,-0.54,-9.21,-0.19,-1.83,0.0,0.0,0.0,-9.17,0.7,-3.39
1738246890.7038405,5649,0,0,,0.0,-0.78,0.28,0.54,0.15,-0.11,1.79,-0.58,-9.14,-1.06,-1.14,0.0,0.0,0.0,-9.06,0.61,-3.69
1738246890.7219844,5650,0,0,,0.0,-0.79,0.28,0.52,0.15,0.16,2.08,-0.62,-9.38,-0.44,0.03,0.0,0.0,0.0,-8.91,0.49,-4.04
1738246890.73891,5651,0,0,,0.0,-0.8,0.28,0.5,0.15,0.31,2.21,-0.58,-9.81,0.35,0.77,0.0,0.0,0.0,-8.73,0.37,-4.43
1738246890.7543256,5652,0,0,,0.0,-0.81,0.28,0.49,0.15,0.42,2.4,-0.35,-9.85,0.99,-0.68,0.0,0.0,0.0,-8.63,0.32,-4.63
1738246890.7720642,5653,0,0,,0.0,-0.82,0.28,0.47,0.15,0.33,2.82,-0.14,-10.86,1.92,-2.73,0.0,0.0,0.0,-8.38,0.26,-5.08
1738246890.789139,5654,0,0,,0.0,-0.84,0.29,0.44,0.14,0.27,3.07,-0.04,-14.65,2.54,-2.97,0.0,0.0,0.0,-8.05,0.23,-5.59
1738246890.8042595,5655,0,0,,0.0,-0.84,0.29,0.43,0.14,0.22,3.33,0.08,-18.52,3.08,-4.67,0.0,0.0,0.0,-7.86,0.22,-5.84
1738246890.82288,5656,0,0,,0.0,-0.86,0.3,0.4,0.12,-0.28,3.22,0.17,-12.72,4.08,-6.22,0.0,0.0,0.0,-7.48,0.26,-6.33
1738246890.8393238,5657,0,0,,0.0,-0.87,0.3,0.38,0.11,-0.72,3.19,0.24,-10.49,3.84,-5.46,0.0,0.0,0.0,-7.07,0.42,-6.77
1738246890.855103,5658,0,0,,0.0,-0.87,0.3,0.37,0.09,-1.57,3.03,0.45,-13.43,1.1,-2.68,0.0,0.0,0.0,-6.87,0.55,-6.97
1738246890.873617,5659,0,0,,0.0,-0.88,0.3,0.35,0.07,-1.35,2.43,0.59,-13.56,-2.38,-3.62,0.0,0.0,0.0,-6.5,0.83,-7.28
1738246890.889976,5660,0,0,,0.0,-0.89,0.31,0.34,0.06,-0.65,2.13,0.53,-10.4,-1.66,-3.93,0.0,0.0,0.0,-6.21,0.93,-7.52
1738246890.9045768,5661,0,0,,0.0,-0.89,0.31,0.33,0.06,0.74,1.5,0.39,-8.76,0.13,-4.06,0.0,0.0,0.0,-6.1,0.9,-7.62
1738246890.9235997,5662,0,0,,0.0,-0.89,0.32,0.32,0.07,0.96,0.73,0.38,-6.21,1.18,-3.61,0.0,0.0,0.0,-5.95,0.8,-7.74
1738246890.9396105,5663,0,0,,0.0,-0.89,0.32,0.31,0.07,0.88,0.33,0.37,-5.38,1.08,-3.39,0.0,0.0,0.0,-5.93,0.72,-7.77
1738246890.9550319,5664,0,0,,0.0,-0.89,0.32,0.31,0.07,0.49,-0.42,0.3,-4.38,1.01,-3.29,0.0,0.0,0.0,-5.96,0.7,-7.75
1738246890.973794,5665,0,0,,0.0,-0.88,0.33,0.32,0.08,-0.12,-1.14,0.23,-4.03,0.4,-3.2,0.0,0.0,0.0,-6.1,0.73,-7.64
1738246890.9897673,5666,0,0,,0.0,-0.88,0.33,0.34,0.08,-0.35,-1.48,0.2,-4.11,-0.12,-3.17,0.0,0.0,0.0,-6.34,0.81,-7.43
1738246891.0052803,5667,0,0,,0.0,-0.88,0.32,0.35,0.08,-0.5,-2.13,0.08,-4.45,-0.99,-3.08,0.0,0.0,0.0,-6.49,0.85,-7.3
1738246891.0240042,5668,0,0,,0.0,-0.87,0.32,0.37,0.08,-0.35,-2.72,-0.06,-4.74,-1.41,-3.09,0.0,0.0,0.0,-6.84,0.9,-6.96
1738246891.040327,5669,0,0,,0.0,-0.86,0.32,0.4,0.09,-0.25,-2.98,-0.14,-4.84,-1.36,-3.21,0.0,0.0,0.0,-7.25,0.9,-6.53
1738246891.055732,5670,0,0,,0.0,-0.85,0.31,0.41,0.1,-0.1,-3.48,-0.28,-5.26,-1.29,-3.26,0.0,0.0,0.0,-7.47,0.89,-6.28
1738246891.0745354,5671,0,0,,0.0,-0.84,0.31,0.44,0.11,-0.04,-3.93,-0.36,-6.02,-0.8,-3.72,0.0,0.0,0.0,-7.92,0.84,-5.71
1738246891.0903263,5672,0,0,,0.0,-0.82,0.3,0.48,0.12,-0.04,-4.14,-0.39,-6.98,-0.2,-4.54,0.0,0.0,0.0,-8.37,0.79,-5.04
1738246891.1053708,5673,0,0,,0.0,-0.81,0.29,0.49,0.13,-0.2,-4.46,-0.39,-7.46,-0.06,-4.72,0.0,0.0,0.0,-8.58,0.77,-4.67
1738246891.124563,5674,0,0,,0.0,-0.79,0.28,0.53,0.14,-0.64,-4.68,-0.38,-8.37,0.28,-5.24,0.0,0.0,0.0,-8.97,0.74,-3.88
1738246891.1404207,5675,0,0,,0.0,-0.76,0.27,0.57,0.15,-0.88,-4.76,-0.39,-9.84,0.36,-6.22,0.0,0.0,0.0,-9.29,0.74,-3.02
1738246891.1552713,5676,0,0,,0.0,-0.75,0.26,0.59,0.15,-1.14,-4.89,-0.41,-10.06,0.39,-6.6,0.0,0.0,0.0,-9.43,0.73,-2.57
1738246891.1746614,5677,0,0,,0.0,-0.73,0.24,0.63,0.16,-1.06,-4.92,-0.46,-11.47,-0.19,-6.8,0.0,0.0,0.0,-9.64,0.69,-1.64
1738246891.1903439,5678,0,0,,0.0,-0.7,0.22,0.66,0.17,-0.89,-4.9,-0.49,-12.59,-0.23,-6.65,0.0,0.0,0.0,-9.76,0.62,-0.71
1738246891.2058501,5679,0,0,,0.0,-0.68,0.22,0.68,0.17,-0.44,-4.8,-0.51,-13.34,0.1,-6.41,0.0,0.0,0.0,-9.78,0.57,-0.26
1738246891.2248042,5680,0,0,,0.0,-0.65,0.21,0.71,0.18,-0.19,-4.57,-0.43,-13.79,1.06,-6.55,0.0,0.0,0.0,-9.77,0.48,0.61
1738246891.240407,5681,0,0,,0.0,-0.62,0.19,0.73,0.19,-0.21,-4.4,-0.36,-13.2,1.19,-5.65,0.0,0.0,0.0,-9.69,0.42,1.43
1738246891.2554648,5682,0,0,,0.0,-0.61,0.19,0.74,0.2,-0.35,-3.97,-0.21,-12.71,1.13,-5.39,0.0,0.0,0.0,-9.63,0.39,1.8
1738246891.2748635,5683,0,0,,0.0,-0.59,0.18,0.77,0.2,-0.42,-3.41,-0.14,-12.01,0.76,-5.21,0.0,0.0,0.0,-9.48,0.35,2.46
1738246891.290158,5684,0,0,,0.0,-0.56,0.17,0.78,0.2,-0.43,-3.11,-0.11,-11.55,-0.03,-4.98,0.0,0.0,0.0,-9.32,0.31,3.0
1738246891.305226,5685,0,0,,0.0,-0.56,0.16,0.79,0.21,-0.28,-2.51,-0.08,-11.11,-0.79,-4.5,0.0,0.0,0.0,-9.25,0.29,3.23
1738246891.325542,5686,0,0,,0.0,-0.54,0.16,0.8,0.21,0.26,-1.9,-0.07,-9.95,-0.16,-4.17,0.0,0.0,0.0,-9.11,0.29,3.59
1738246891.3412561,5687,0,0,,0.0,-0.53,0.16,0.81,0.22,0.52,-1.57,-0.06,-8.53,1.19,-5.1,0.0,0.0,0.0,-9.01,0.33,3.83
1738246891.356374,5688,0,0,,0.0,-0.52,0.16,0.81,0.22,0.7,-0.81,0.07,-8.41,1.25,-4.82,0.0,0.0,0.0,-8.98,0.36,3.9
1738246891.3754063,5689,0,0,,0.0,-0.52,0.17,0.81,0.22,0.56,-0.06,0.14,-8.6,0.83,-5.46,0.0,0.0,0.0,-8.96,0.43,3.94
1738246891.3909023,5690,0,0,,0.0,-0.52,0.17,0.8,0.22,0.45,0.31,0.15,-8.63,0.36,-5.4,0.0,0.0,0.0,-9.0,0.48,3.85
1738246891.4063456,5691,0,0,,0.0,-0.53,0.18,0.8,0.22,0.17,0.95,0.12,-9.55,0.35,-1.74,0.0,0.0,0.0,-9.03,0.5,3.77
1738246891.4258735,5692,0,0,,0.0,-0.53,0.18,0.8,0.22,0.42,0.37,0.01,-17.8,-1.29,17.81,0.0,0.0,0.0,-9.08,0.53,3.65
1738246891.4414344,5693,0,0,,0.0,-0.53,0.18,0.8,0.22,0.24,-0.13,0.08,-6.67,-0.96,-5.21,0.0,0.0,0.0,-9.07,0.57,3.67
1738246891.456482,5694,0,0,,0.0,-0.53,0.18,0.8,0.22,0.04,0.18,0.34,-7.46,-0.29,-3.59,0.0,0.0,0.0,-9.07,0.6,3.65
1738246891.475342,5695,0,0,,0.0,-0.53,0.18,0.8,0.21,-0.08,0.71,0.2,-12.13,0.23,3.68,0.0,0.0,0.0,-9.11,0.64,3.54
1738246891.4909327,5696,0,0,,0.0,-0.54,0.18,0.79,0.21,-0.37,0.76,0.29,-10.16,1.21,1.92,0.0,0.0,0.0,-9.16,0.66,3.42
1738246891.5057573,5697,0,0,,0.0,-0.54,0.18,0.79,0.2,-0.92,0.7,0.32,-9.39,1.44,1.64,0.0,0.0,0.0,-9.18,0.66,3.36
1738246891.5245476,5698,0,0,,0.0,-0.55,0.18,0.79,0.19,-0.83,0.61,0.33,-9.48,-0.48,2.78,0.0,0.0,0.0,-9.22,0.66,3.26
1738246891.5408156,5699,0,0,,0.0,-0.55,0.18,0.79,0.19,-0.58,0.62,0.37,-9.15,0.37,1.92,0.0,0.0,0.0,-9.25,0.69,3.15
1738246891.555126,5700,0,0,,0.0,-0.56,0.18,0.79,0.18,-0.08,0.62,0.32,-9.17,0.51,2.9,0.0,0.0,0.0,-9.27,0.72,3.1
1738246891.575034,5701,0,0,,0.0,-0.56,0.18,0.79,0.18,0.29,0.57,0.32,-9.27,-0.4,2.99,0.0,0.0,0.0,-9.3,0.79,2.99
1738246891.5907078,5702,0,0,,0.0,-0.56,0.19,0.78,0.18,0.42,0.6,0.34,-8.99,1.02,2.31,0.0,0.0,0.0,-9.33,0.87,2.87
1738246891.606211,5703,0,0,,0.0,-0.57,0.19,0.78,0.18,0.25,0.69,0.32,-8.97,1.47,2.64,0.0,0.0,0.0,-9.35,0.91,2.81
1738246891.6246884,5704,0,0,,0.0,-0.57,0.19,0.78,0.18,-0.23,0.7,0.36,-9.08,1.53,2.22,0.0,0.0,0.0,-9.38,0.96,2.68
1738246891.640726,5705,0,0,,0.0,-0.58,0.19,0.78,0.17,-0.4,0.71,0.36,-9.3,1.29,1.35,0.0,0.0,0.0,-9.41,1.01,2.56
1738246891.655835,5706,0,0,,0.0,-0.58,0.19,0.77,0.17,-0.5,0.73,0.34,-9.93,0.7,1.91,0.0,0.0,0.0,-9.42,1.03,2.5
1738246891.6760654,5707,0,0,,0.0,-0.58,0.19,0.77,0.16,-0.25,0.65,0.29,-10.02,-0.01,1.68,0.0,0.0,0.0,-9.45,1.06,2.38
1738246891.6910832,5708,0,0,,0.0,-0.59,0.19,0.77,0.16,-0.04,0.61,0.25,-10.15,0.7,0.67,0.0,0.0,0.0,-9.47,1.11,2.27
1738246891.706784,5709,0,0,,0.0,-0.59,0.2,0.77,0.16,0.2,0.6,0.2,-10.25,0.47,1.15,0.0,0.0,0.0,-9.48,1.13,2.21
1738246891.7263439,5710,0,0,,0.0,-0.59,0.2,0.76,0.16,0.25,0.56,0.16,-9.86,0.63,1.12,0.0,0.0,0.0,-9.5,1.17,2.1
1738246891.740924,5711,0,0,,0.0,-0.6,0.2,0.76,0.15,0.24,0.54,0.15,-9.6,0.98,0.97,0.0,0.0,0.0,-9.52,1.21,1.99
1738246891.756663,5712,0,0,,0.0,-0.6,0.2,0.76,0.15,0.21,0.58,0.12,-9.62,1.13,1.29,0.0,0.0,0.0,-9.53,1.23,1.94
1738246891.7764158,5713,0,0,,0.0,-0.6,0.21,0.75,0.15,0.22,0.58,0.09,-9.34,1.23,1.78,0.0,0.0,0.0,-9.55,1.25,1.83
1738246891.7911098,5714,0,0,,0.0,-0.61,0.21,0.75,0.15,0.23,0.58,0.07,-9.31,1.06,1.46,0.0,0.0,0.0,-9.57,1.27,1.71
1738246891.8062632,5715,0,0,,0.0,-0.61,0.21,0.75,0.15,0.32,0.61,0.04,-9.47,0.94,1.6,0.0,0.0,0.0,-9.58,1.28,1.65
1738246891.8262324,5716,0,0,,0.0,-0.61,0.22,0.74,0.15,0.41,0.58,0.03,-9.54,1.04,0.99,0.0,0.0,0.0,-9.59,1.3,1.53
1738246891.841627,5717,0,0,,0.0,-0.62,0.22,0.74,0.16,0.42,0.58,0.02,-9.77,0.91,0.25,0.0,0.0,0.0,-9.61,1.31,1.41
1738246891.8565784,5718,0,0,,0.0,-0.62,0.22,0.74,0.16,0.39,0.57,0.02,-10.12,0.59,1.04,0.0,0.0,0.0,-9.62,1.32,1.35
1738246891.8758585,5719,0,0,,0.0,-0.62,0.23,0.73,0.16,0.39,0.5,0.02,-9.93,0.51,0.57,0.0,0.0,0.0,-9.63,1.34,1.25
1738246891.8914218,5720,0,0,,0.0,-0.62,0.23,0.73,0.16,0.4,0.49,0.02,-9.92,0.88,0.55,0.0,0.0,0.0,-9.64,1.35,1.15
1738246891.9060605,5721,0,0,,0.0,-0.62,0.23,0.73,0.16,0.39,0.49,0.02,-9.9,0.93,0.89,0.0,0.0,0.0,-9.64,1.35,1.09
1738246891.925922,5722,0,0,,0.0,-0.63,0.23,0.72,0.16,0.36,0.45,0.02,-9.67,0.91,0.68,0.0,0.0,0.0,-9.65,1.37,1.0
1738246891.9415648,5723,0,0,,0.0,-0.63,0.24,0.72,0.16,0.34,0.46,0.02,-9.66,1.16,0.41,0.0,0.0,0.0,-9.66,1.38,0.9
1738246891.9565606,5724,0,0,,0.0,-0.63,0.24,0.72,0.16,0.3,0.5,0.02,-9.94,1.1,0.94,0.0,0.0,0.0,-9.67,1.38,0.85
1738246891.973194,5725,0,0,,0.0,-0.63,0.24,0.72,0.16,0.23,0.45,0.02,-9.59,1.19,0.32,0.0,0.0,0.0,-9.67,1.38,0.75
1738246891.9897673,5726,0,0,,0.0,-0.64,0.24,0.71,0.16,0.21,0.46,0.02,-9.64,1.14,0.19,0.0,0.0,0.0,-9.68,1.38,0.66
1738246892.0049794,5727,0,0,,0.0,-0.64,0.25,0.71,0.16,0.19,0.48,0.01,-9.83,1.18,0.56,0.0,0.0,0.0,-9.68,1.38,0.61
1738246892.0214295,5728,0,0,,0.0,-0.64,0.25,0.71,0.16,0.17,0.46,0.01,-9.47,1.1,0.07,0.0,0.0,0.0,-9.69,1.39,0.52
1738246892.0393453,5729,0,0,,0.0,-0.65,0.25,0.7,0.16,0.13,0.51,0.01,-9.59,1.07,-0.09,0.0,0.0,0.0,-9.69,1.39,0.46
1738246892.0550184,5730,0,0,,0.0,-0.65,0.25,0.7,0.16,0.14,0.54,0.01,-9.81,1.12,0.24,0.0,0.0,0.0,-9.7,1.38,0.36
1738246892.0717115,5731,0,0,,0.0,-0.65,0.25,0.7,0.16,0.13,0.52,0.01,-9.58,1.09,-0.63,0.0,0.0,0.0,-9.7,1.37,0.25
1738246892.0894914,5732,0,0,,0.0,-0.65,0.25,0.69,0.16,0.15,0.56,0.01,-9.57,1.1,-0.64,0.0,0.0,0.0,-9.7,1.38,0.14
1738246892.104217,5733,0,0,,0.0,-0.66,0.25,0.69,0.16,0.19,0.58,-0.01,-9.86,1.1,-0.07,0.0,0.0,0.0,-9.7,1.37,0.08
1738246892.1194391,5734,0,0,,0.0,-0.66,0.26,0.69,0.16,0.2,0.57,-0.01,-9.67,1.13,-0.35,0.0,0.0,0.0,-9.7,1.37,0.02
1738246892.1390533,5735,0,0,,0.0,-0.66,0.26,0.68,0.16,0.19,0.61,-0.02,-9.72,1.12,-0.67,0.0,0.0,0.0,-9.7,1.37,-0.08
1738246892.1540167,5736,0,0,,0.0,-0.67,0.26,0.68,0.16,0.17,0.64,-0.04,-9.88,1.13,-0.05,0.0,0.0,0.0,-9.7,1.36,-0.21
1738246892.1698143,5737,0,0,,0.0,-0.67,0.26,0.68,0.16,0.15,0.63,-0.04,-9.74,1.14,-0.44,0.0,0.0,0.0,-9.7,1.35,-0.33
1738246892.1895535,5738,0,0,,0.0,-0.67,0.26,0.67,0.16,0.16,0.7,-0.04,-10.0,0.99,-0.72,0.0,0.0,0.0,-9.7,1.35,-0.4
1738246892.2038097,5739,0,0,,0.0,-0.68,0.26,0.67,0.16,0.22,0.74,-0.06,-10.19,1.03,-0.3,0.0,0.0,0.0,-9.69,1.33,-0.55
1738246892.219214,5740,0,0,,0.0,-0.68,0.27,0.66,0.16,0.25,0.75,-0.05,-10.12,0.99,-0.69,0.0,0.0,0.0,-9.69,1.32,-0.62
1738246892.2391646,5741,0,0,,0.0,-0.69,0.27,0.66,0.16,0.3,0.82,-0.06,-10.29,0.74,-1.03,0.0,0.0,0.0,-9.68,1.31,-0.78
1738246892.2540402,5742,0,0,,0.0,-0.69,0.27,0.65,0.16,0.34,0.86,-0.09,-10.29,0.81,-0.91,0.0,0.0,0.0,-9.67,1.29,-0.95
1738246892.2698276,5743,0,0,,0.0,-0.7,0.27,0.65,0.16,0.33,0.9,-0.1,-10.37,0.77,-0.9,0.0,0.0,0.0,-9.66,1.28,-1.03
1738246892.2887003,5744,0,0,,0.0,-0.7,0.27,0.64,0.16,0.28,0.99,-0.13,-10.6,0.76,-0.74,0.0,0.0,0.0,-9.65,1.23,-1.21
1738246892.3040464,5745,0,0,,0.0,-0.7,0.28,0.63,0.16,0.27,1.05,-0.17,-10.45,0.81,-0.87,0.0,0.0,0.0,-9.63,1.18,-1.39
1738246892.3190355,5746,0,0,,0.0,-0.71,0.28,0.63,0.16,0.29,1.09,-0.18,-10.33,0.75,-1.16,0.0,0.0,0.0,-9.62,1.15,-1.49
1738246892.3386707,5747,0,0,,0.0,-0.72,0.28,0.62,0.16,0.36,1.18,-0.23,-10.22,0.62,-1.66,0.0,0.0,0.0,-9.59,1.1,-1.71
1738246892.3539999,5748,0,0,,0.0,-0.72,0.28,0.61,0.16,0.49,1.21,-0.32,-10.1,0.57,-1.37,0.0,0.0,0.0,-9.55,1.03,-1.95
1738246892.3698936,5749,0,0,,0.0,-0.73,0.28,0.6,0.17,0.51,1.24,-0.37,-10.06,2.02,-2.27,0.0,0.0,0.0,-9.51,0.94,-2.19
1738246892.3894458,5750,0,0,,0.0,-0.74,0.28,0.59,0.17,0.29,1.34,-0.42,-11.32,0.69,-0.66,0.0,0.0,0.0,-9.48,0.9,-2.32
1738246892.404788,5751,0,0,,0.0,-0.74,0.28,0.58,0.17,0.36,1.42,-0.44,-9.15,0.63,-2.45,0.0,0.0,0.0,-9.42,0.8,-2.58
1738246892.4194987,5752,0,0,,0.0,-0.75,0.28,0.57,0.17,0.33,1.49,-0.49,-9.99,0.2,-1.58,0.0,0.0,0.0,-9.39,0.75,-2.72
1738246892.4392946,5753,0,0,,0.0,-0.76,0.28,0.56,0.17,0.17,1.54,-0.55,-9.83,0.62,-1.54,0.0,0.0,0.0,-9.31,0.64,-2.99
1738246892.4541311,5754,0,0,,0.0,-0.77,0.28,0.55,0.17,0.02,1.62,-0.6,-9.44,0.1,-1.66,0.0,0.0,0.0,-9.22,0.53,-3.28
1738246892.4699507,5755,0,0,,0.0,-0.78,0.28,0.54,0.17,0.07,1.71,-0.6,-9.11,-0.66,-1.58,0.0,0.0,0.0,-9.11,0.41,-3.6
1738246892.4899125,5756,0,0,,0.0,-0.79,0.28,0.52,0.17,0.27,1.99,-0.66,-9.24,-0.68,-0.65,0.0,0.0,0.0,-9.04,0.34,-3.78
1738246892.5044363,5757,0,0,,0.0,-0.8,0.28,0.51,0.17,0.46,2.25,-0.6,-9.86,0.5,0.59,0.0,0.0,0.0,-8.87,0.2,-4.16
1738246892.519354,5758,0,0,,0.0,-0.81,0.29,0.49,0.17,0.52,2.34,-0.49,-10.13,0.9,0.43,0.0,0.0,0.0,-8.78,0.14,-4.36
1738246892.5391793,5759,0,0,,0.0,-0.82,0.29,0.46,0.17,0.56,2.65,-0.26,-10.91,0.87,-2.06,0.0,0.0,0.0,-8.55,0.04,-4.79
1738246892.5546515,5760,0,0,,0.0,-0.83,0.29,0.45,0.16,0.48,3.13,-0.17,-13.21,2.36,-2.98,0.0,0.0,0.0,-8.26,-0.04,-5.28
1738246892.5703123,5761,0,0,,0.0,-0.84,0.3,0.42,0.16,0.36,3.28,-0.1,-14.88,2.36,-3.08,0.0,0.0,0.0,-7.9,-0.08,-5.8
1738246892.5896697,5762,0,0,,0.0,-0.85,0.3,0.4,0.15,0.11,3.27,0.0,-16.36,2.23,-4.37,0.0,0.0,0.0,-7.71,-0.08,-6.04
1738246892.6054482,5763,0,0,,0.0,-0.86,0.31,0.39,0.14,-0.23,2.92,0.13,-12.34,2.22,-3.78,0.0,0.0,0.0,-7.35,-0.05,-6.49
1738246892.6200197,5764,0,0,,0.0,-0.87,0.31,0.37,0.13,-0.53,2.71,0.2,-10.41,2.58,-3.52,0.0,0.0,0.0,-7.01,0.06,-6.85
1738246892.639597,5765,0,0,,0.0,-0.88,0.31,0.35,0.11,-1.15,2.24,0.38,-10.8,1.67,-1.05,0.0,0.0,0.0,-6.86,0.17,-7.0
1738246892.6546066,5766,0,0,,0.0,-0.88,0.31,0.35,0.1,-1.17,1.52,0.46,-11.26,-0.64,-2.65,0.0,0.0,0.0,-6.62,0.4,-7.21
1738246892.6709719,5767,0,0,,0.0,-0.88,0.31,0.34,0.09,-0.77,1.14,0.43,-10.42,-0.59,-2.51,0.0,0.0,0.0,-6.48,0.53,-7.33
1738246892.689893,5768,0,0,,0.0,-0.88,0.32,0.34,0.09,0.01,0.36,0.38,-7.82,-0.69,-2.64,0.0,0.0,0.0,-6.46,0.55,-7.35
1738246892.7053633,5769,0,0,,0.0,-0.88,0.32,0.34,0.09,0.55,-0.43,0.29,-6.8,-0.9,-2.83,0.0,0.0,0.0,-6.49,0.53,-7.33
1738246892.7198367,5770,0,0,,0.0,-0.87,0.32,0.35,0.1,0.67,-0.81,0.23,-5.74,-0.27,-3.13,0.0,0.0,0.0,-6.62,0.46,-7.21
1738246892.7401655,5771,0,0,,0.0,-0.87,0.32,0.36,0.11,0.5,-1.5,0.13,-5.37,0.0,-3.17,0.0,0.0,0.0,-6.73,0.44,-7.11
1738246892.7546155,5772,0,0,,0.0,-0.86,0.32,0.37,0.11,0.13,-2.14,0.07,-5.35,-0.04,-3.25,0.0,0.0,0.0,-6.99,0.42,-6.85
1738246892.769747,5773,0,0,,0.0,-0.85,0.32,0.39,0.12,-0.06,-2.44,0.05,-5.43,-0.04,-3.22,0.0,0.0,0.0,-7.33,0.44,-6.49
1738246892.7899973,5774,0,0,,0.0,-0.84,0.31,0.42,0.13,-0.4,-2.98,-0.02,-5.87,-0.69,-3.48,0.0,0.0,0.0,-7.51,0.47,-6.27
1738246892.8050795,5775,0,0,,0.0,-0.84,0.31,0.43,0.13,-0.55,-3.44,-0.14,-6.66,-0.81,-3.82,0.0,0.0,0.0,-7.9,0.51,-5.77
1738246892.8194237,5776,0,0,,0.0,-0.82,0.3,0.47,0.14,-0.59,-3.67,-0.2,-7.15,-1.12,-3.87,0.0,0.0,0.0,-8.3,0.54,-5.18
1738246892.8404644,5777,0,0,,0.0,-0.8,0.29,0.5,0.15,-0.48,-4.03,-0.33,-7.71,-1.01,-4.53,0.0,0.0,0.0,-8.5,0.53,-4.85
1738246892.8546948,5778,0,0,,0.0,-0.79,0.29,0.52,0.15,-0.42,-4.28,-0.39,-8.6,-0.31,-5.39,0.0,0.0,0.0,-8.87,0.5,-4.13
1738246892.8701026,5779,0,0,,0.0,-0.77,0.27,0.55,0.16,-0.5,-4.36,-0.39,-8.93,-0.03,-5.68,0.0,0.0,0.0,-9.04,0.49,-3.75
1738246892.8899198,5780,0,0,,0.0,-0.75,0.26,0.58,0.17,-0.87,-4.45,-0.37,-9.92,0.93,-6.25,0.0,0.0,0.0,-9.33,0.47,-2.95
1738246892.904497,5781,0,0,,0.0,-0.74,0.25,0.6,0.17,-1.31,-4.46,-0.36,-10.3,1.14,-6.89,0.0,0.0,0.0,-9.56,0.46,-2.13
1738246892.9198723,5782,0,0,,0.0,-0.72,0.23,0.64,0.17,-1.48,-4.43,-0.35,-10.35,1.16,-7.22,0.0,0.0,0.0,-9.71,0.45,-1.29
1738246892.9404504,5783,0,0,,0.0,-0.69,0.21,0.67,0.17,-1.61,-4.33,-0.37,-11.02,0.42,-6.89,0.0,0.0,0.0,-9.78,0.4,-0.46
1738246892.954862,5784,0,0,,0.0,-0.68,0.2,0.68,0.17,-1.33,-4.2,-0.44,-11.48,-0.08,-6.06,0.0,0.0,0.0,-9.79,0.36,-0.06
1738246892.9703536,5785,0,0,,0.0,-0.66,0.18,0.71,0.18,-1.11,-4.14,-0.45,-11.61,-0.1,-5.79,0.0,0.0,0.0,-9.77,0.27,0.71
1738246892.9898715,5786,0,0,,0.0,-0.63,0.17,0.73,0.18,-0.66,-3.95,-0.43,-11.7,0.07,-5.34,0.0,0.0,0.0,-9.69,0.19,1.45
1738246893.004657,5787,0,0,,0.0,-0.62,0.17,0.75,0.19,-0.26,-3.64,-0.32,-11.64,0.24,-5.16,0.0,0.0,0.0,-9.63,0.15,1.79
1738246893.0207546,5788,0,0,,0.0,-0.59,0.16,0.77,0.19,-0.1,-3.45,-0.25,-11.52,0.18,-4.9,0.0,0.0,0.0,-9.5,0.11,2.41
1738246893.0402043,5789,0,0,,0.0,-0.57,0.15,0.78,0.2,0.18,-2.99,-0.15,-11.14,0.19,-4.92,0.0,0.0,0.0,-9.35,0.1,2.93
1738246893.0546076,5790,0,0,,0.0,-0.56,0.15,0.79,0.2,0.27,-2.47,-0.09,-10.68,0.21,-5.01,0.0,0.0,0.0,-9.28,0.1,3.15
1738246893.0710673,5791,0,0,,0.0,-0.55,0.15,0.8,0.21,0.29,-2.18,-0.07,-10.35,0.0,-4.53,0.0,0.0,0.0,-9.15,0.11,3.52
1738246893.090515,5792,0,0,,0.0,-0.53,0.15,0.8,0.21,0.36,-1.59,-0.05,-9.49,0.31,-4.45,0.0,0.0,0.0,-9.05,0.12,3.77
1738246893.1049352,5793,0,0,,0.0,-0.53,0.15,0.81,0.21,0.38,-0.94,0.02,-8.87,0.8,-4.67,0.0,0.0,0.0,-9.01,0.14,3.85
1738246893.1204708,5794,0,0,,0.0,-0.53,0.15,0.81,0.22,0.36,-0.6,0.07,-8.54,1.07,-4.74,0.0,0.0,0.0,-8.98,0.18,3.92
1738246893.1399124,5795,0,0,,0.0,-0.53,0.16,0.81,0.22,0.25,0.08,0.15,-8.76,1.46,-4.93,0.0,0.0,0.0,-9.0,0.23,3.88
1738246893.1549354,5796,0,0,,0.0,-0.53,0.16,0.81,0.21,-0.06,0.75,0.23,-8.59,1.28,-5.65,0.0,0.0,0.0,-9.03,0.24,3.81
1738246893.1702702,5797,0,0,,0.0,-0.54,0.16,0.8,0.21,-0.23,1.02,0.21,-9.72,0.32,-2.5,0.0,0.0,0.0,-9.1,0.26,3.62
1738246893.1900702,5798,0,0,,0.0,-0.54,0.16,0.8,0.21,-0.11,0.74,0.14,-15.5,0.04,20.07,0.0,0.0,0.0,-9.13,0.27,3.56
1738246893.204794,5799,0,0,,0.0,-0.54,0.16,0.8,0.21,0.02,-0.34,0.25,-10.4,-2.07,1.27,0.0,0.0,0.0,-9.11,0.3,3.59
1738246893.220747,5800,0,0,,0.0,-0.54,0.16,0.8,0.2,0.18,-0.11,0.48,-6.73,-2.01,-6.77,0.0,0.0,0.0,-9.12,0.38,3.57
1738246893.2399194,5801,0,0,,0.0,-0.54,0.17,0.8,0.2,0.13,0.68,0.25,-12.13,-1.04,3.96,0.0,0.0,0.0,-9.16,0.43,3.44
1738246893.2548373,5802,0,0,,0.0,-0.55,0.17,0.8,0.2,-0.26,0.79,0.35,-11.22,0.76,0.78,0.0,0.0,0.0,-9.19,0.46,3.37
1738246893.270535,5803,0,0,,0.0,-0.55,0.16,0.79,0.19,-0.58,0.74,0.34,-10.68,1.47,1.84,0.0,0.0,0.0,-9.23,0.47,3.26
1738246893.2908995,5804,0,0,,0.0,-0.56,0.16,0.79,0.19,-0.61,0.53,0.31,-8.44,0.64,2.93,0.0,0.0,0.0,-9.26,0.5,3.17
1738246893.3046336,5805,0,0,,0.0,-0.56,0.16,0.79,0.18,-0.13,0.65,0.4,-8.75,1.5,1.94,0.0,0.0,0.0,-9.28,0.53,3.11
1738246893.32084,5806,0,0,,0.0,-0.56,0.17,0.79,0.18,0.0,0.65,0.36,-9.03,1.35,2.91,0.0,0.0,0.0,-9.31,0.6,3.0
1738246893.3406303,5807,0,0,,0.0,-0.57,0.17,0.78,0.18,0.29,0.55,0.35,-8.96,0.52,3.7,0.0,0.0,0.0,-9.34,0.69,2.89
1738246893.3548837,5808,0,0,,0.0,-0.57,0.18,0.78,0.18,0.4,0.63,0.39,-8.86,0.67,2.19,0.0,0.0,0.0,-9.35,0.73,2.83
1738246893.3712113,5809,0,0,,0.0,-0.57,0.18,0.78,0.17,0.25,0.68,0.38,-9.07,1.13,2.02,0.0,0.0,0.0,-9.39,0.81,2.7
1738246893.3906264,5810,0,0,,0.0,-0.58,0.18,0.78,0.17,-0.27,0.66,0.39,-9.37,1.63,2.13,0.0,0.0,0.0,-9.41,0.86,2.59
1738246893.4052982,5811,0,0,,0.0,-0.58,0.18,0.78,0.16,-0.61,0.67,0.4,-9.52,1.24,1.32,0.0,0.0,0.0,-9.43,0.88,2.53
1738246893.4216504,5812,0,0,,0.0,-0.59,0.18,0.77,0.16,-0.63,0.67,0.38,-10.17,0.55,1.45,0.0,0.0,0.0,-9.45,0.92,2.42
1738246893.440574,5813,0,0,,0.0,-0.59,0.18,0.77,0.15,-0.32,0.58,0.33,-10.39,-0.5,0.98,0.0,0.0,0.0,-9.47,0.97,2.32
1738246893.4552314,5814,0,0,,0.0,-0.59,0.18,0.77,0.15,0.15,0.49,0.27,-10.32,0.13,0.85,0.0,0.0,0.0,-9.48,1.0,2.28
1738246893.4711413,5815,0,0,,0.0,-0.59,0.19,0.77,0.15,0.25,0.46,0.24,-10.33,0.22,1.14,0.0,0.0,0.0,-9.49,1.05,2.19
1738246893.4903288,5816,0,0,,0.0,-0.6,0.19,0.76,0.15,0.32,0.43,0.2,-9.94,0.63,1.19,0.0,0.0,0.0,-9.51,1.1,2.11
1738246893.5050437,5817,0,0,,0.0,-0.6,0.19,0.76,0.15,0.32,0.42,0.16,-9.59,0.96,1.31,0.0,0.0,0.0,-9.51,1.12,2.06
1738246893.5214386,5818,0,0,,0.0,-0.6,0.2,0.76,0.15,0.32,0.43,0.15,-9.43,1.16,1.84,0.0,0.0,0.0,-9.53,1.16,1.98
1738246893.5407662,5819,0,0,,0.0,-0.6,0.2,0.76,0.15,0.33,0.44,0.13,-9.04,1.51,1.34,0.0,0.0,0.0,-9.54,1.2,1.88
1738246893.5549676,5820,0,0,,0.0,-0.6,0.2,0.76,0.15,0.34,0.52,0.1,-9.44,1.16,1.73,0.0,0.0,0.0,-9.55,1.21,1.83
1738246893.5712073,5821,0,0,,0.0,-0.61,0.21,0.75,0.15,0.38,0.53,0.07,-9.58,1.06,1.89,0.0,0.0,0.0,-9.57,1.24,1.73
1738246893.5907722,5822,0,0,,0.0,-0.61,0.21,0.75,0.15,0.41,0.52,0.06,-9.6,0.92,0.86,0.0,0.0,0.0,-9.58,1.26,1.62
1738246893.6054895,5823,0,0,,0.0,-0.61,0.21,0.75,0.15,0.44,0.54,0.05,-9.77,0.76,0.68,0.0,0.0,0.0,-9.59,1.27,1.56
1738246893.6211956,5824,0,0,,0.0,-0.62,0.22,0.74,0.15,0.45,0.54,0.04,-10.04,0.69,1.41,0.0,0.0,0.0,-9.61,1.29,1.45
1738246893.6405985,5825,0,0,,0.0,-0.62,0.22,0.74,0.16,0.44,0.5,0.03,-9.79,0.9,0.99,0.0,0.0,0.0,-9.62,1.31,1.35
1738246893.6557372,5826,0,0,,0.0,-0.62,0.22,0.74,0.16,0.39,0.47,0.04,-9.8,1.04,1.27,0.0,0.0,0.0,-9.62,1.31,1.3
1738246893.6711452,5827,0,0,,0.0,-0.62,0.23,0.73,0.16,0.39,0.48,0.04,-9.82,1.11,1.04,0.0,0.0,0.0,-9.64,1.33,1.2
1738246893.690827,5828,0,0,,0.0,-0.63,0.23,0.73,0.16,0.33,0.44,0.04,-9.54,1.21,0.63,0.0,0.0,0.0,-9.65,1.34,1.11
1738246893.7052674,5829,0,0,,0.0,-0.63,0.23,0.73,0.16,0.27,0.46,0.04,-9.73,1.16,0.96,0.0,0.0,0.0,-9.65,1.35,1.06
1738246893.721153,5830,0,0,,0.0,-0.63,0.23,0.72,0.16,0.26,0.48,0.03,-9.81,1.15,1.03,0.0,0.0,0.0,-9.66,1.36,0.96
1738246893.7409163,5831,0,0,,0.0,-0.63,0.24,0.72,0.16,0.19,0.45,0.04,-9.55,1.22,0.34,0.0,0.0,0.0,-9.67,1.37,0.87
1738246893.7553566,5832,0,0,,0.0,-0.63,0.24,0.72,0.16,0.15,0.49,0.04,-9.77,1.07,0.77,0.0,0.0,0.0,-9.67,1.37,0.82
1738246893.770846,5833,0,0,,0.0,-0.64,0.24,0.72,0.16,0.15,0.51,0.04,-9.71,1.17,0.8,0.0,0.0,0.0,-9.68,1.38,0.72
1738246893.7905078,5834,0,0,,0.0,-0.64,0.24,0.71,0.16,0.09,0.49,0.04,-9.42,1.14,0.02,0.0,0.0,0.0,-9.68,1.39,0.62
1738246893.8053463,5835,0,0,,0.0,-0.64,0.24,0.71,0.16,0.06,0.55,0.05,-9.87,1.14,0.61,0.0,0.0,0.0,-9.68,1.39,0.57
1738246893.8212008,5836,0,0,,0.0,-0.65,0.24,0.71,0.15,0.07,0.56,0.05,-9.88,1.24,0.5,0.0,0.0,0.0,-9.69,1.4,0.46
1738246893.8405092,5837,0,0,,0.0,-0.65,0.24,0.7,0.15,0.06,0.52,0.04,-9.76,1.14,-0.23,0.0,0.0,0.0,-9.69,1.41,0.36
1738246893.8556004,5838,0,0,,0.0,-0.65,0.24,0.7,0.15,0.1,0.55,0.02,-9.94,0.98,0.29,0.0,0.0,0.0,-9.69,1.41,0.31
1738246893.8716245,5839,0,0,,0.0,-0.65,0.25,0.7,0.15,0.15,0.57,0.01,-9.66,1.21,-0.07,0.0,0.0,0.0,-9.7,1.41,0.2
1738246893.8911476,5840,0,0,,0.0,-0.66,0.25,0.69,0.15,0.17,0.56,-0.01,-9.71,1.13,-0.17,0.0,0.0,0.0,-9.7,1.41,0.08
1738246893.905506,5841,0,0,,0.0,-0.66,0.25,0.69,0.15,0.19,0.61,-0.01,-9.88,1.12,-0.11,0.0,0.0,0.0,-9.7,1.41,0.02
1738246893.9219499,5842,0,0,,0.0,-0.66,0.25,0.69,0.15,0.2,0.63,-0.02,-9.68,1.19,-0.28,0.0,0.0,0.0,-9.7,1.4,-0.09
1738246893.9409435,5843,0,0,,0.0,-0.67,0.25,0.68,0.15,0.22,0.66,-0.03,-9.72,1.19,-0.23,0.0,0.0,0.0,-9.7,1.39,-0.23
1738246893.9556737,5844,0,0,,0.0,-0.67,0.26,0.68,0.15,0.24,0.74,-0.04,-9.93,1.13,-0.13,0.0,0.0,0.0,-9.7,1.39,-0.3
1738246893.9721122,5845,0,0,,0.0,-0.68,0.26,0.67,0.15,0.25,0.77,-0.03,-10.03,1.14,-0.17,0.0,0.0,0.0,-9.69,1.38,-0.45
1738246893.9906788,5846,0,0,,0.0,-0.68,0.26,0.67,0.15,0.27,0.84,-0.04,-10.31,1.01,-0.74,0.0,0.0,0.0,-9.69,1.36,-0.62
1738246894.0057678,5847,0,0,,0.0,-0.68,0.26,0.66,0.15,0.32,0.91,-0.06,-10.32,1.12,-0.6,0.0,0.0,0.0,-9.68,1.36,-0.71
1738246894.0217018,5848,0,0,,0.0,-0.69,0.26,0.66,0.15,0.34,0.93,-0.07,-10.37,0.97,-0.84,0.0,0.0,0.0,-9.67,1.34,-0.89
1738246894.0414503,5849,0,0,,0.0,-0.7,0.27,0.65,0.15,0.35,1.01,-0.1,-10.33,0.95,-1.13,0.0,0.0,0.0,-9.65,1.31,-1.1
1738246894.0558815,5850,0,0,,0.0,-0.7,0.27,0.64,0.15,0.34,1.12,-0.14,-10.62,0.48,-0.53,0.0,0.0,0.0,-9.64,1.29,-1.21
1738246894.0722055,5851,0,0,,0.0,-0.71,0.27,0.64,0.15,0.35,1.14,-0.17,-10.62,1.99,-1.85,0.0,0.0,0.0,-9.61,1.25,-1.43
1738246894.0918255,5852,0,0,,0.0,-0.71,0.27,0.63,0.15,0.3,1.22,-0.24,-11.6,1.89,-1.22,0.0,0.0,0.0,-9.58,1.2,-1.67
1738246894.1057656,5853,0,0,,0.0,-0.72,0.27,0.62,0.15,0.06,1.31,-0.29,-10.95,0.16,-1.0,0.0,0.0,0.0,-9.56,1.17,-1.79
1738246894.122278,5854,0,0,,0.0,-0.73,0.27,0.61,0.15,0.11,1.29,-0.3,-10.28,0.56,-2.2,0.0,0.0,0.0,-9.52,1.11,-2.04
1738246894.1414695,5855,0,0,,0.0,-0.74,0.27,0.6,0.15,0.15,1.38,-0.35,-10.36,0.31,-2.07,0.0,0.0,0.0,-9.47,1.03,-2.3
1738246894.1564534,5856,0,0,,0.0,-0.74,0.27,0.59,0.15,0.06,1.42,-0.41,-10.3,0.42,-1.09,0.0,0.0,0.0,-9.44,0.99,-2.43
1738246894.172325,5857,0,0,,0.0,-0.75,0.27,0.58,0.15,-0.03,1.42,-0.45,-9.19,0.86,-2.42,0.0,0.0,0.0,-9.38,0.91,-2.68
1738246894.1925197,5858,0,0,,0.0,-0.76,0.27,0.57,0.15,-0.12,1.44,-0.45,-9.29,-0.1,-1.59,0.0,0.0,0.0,-9.31,0.84,-2.95
