Time,header.seq,header.stamp.secs,header.stamp.nsecs,header.frame_id,time_stamp,quat_x,quat_y,quat_z,quat_w,gyro_x,gyro_y,gyro_z,accel_x,accel_y,accel_z,euler_x,euler_y,euler_z,gravity_x,gravity_y,gravity_z
1738247943.440201,66878,0,0,,0.0,-0.19,0.15,0.91,0.32,0.05,-0.05,0.0,-4.66,1.62,8.53,0.0,0.0,0.0,-4.46,1.54,8.59
1738247943.4583223,66879,0,0,,0.0,-0.19,0.16,0.91,0.32,0.07,-0.05,0.01,-3.92,1.63,8.82,0.0,0.0,0.0,-4.45,1.55,8.59
1738247943.4729512,66880,0,0,,0.0,-0.19,0.16,0.91,0.32,0.08,-0.01,0.03,-4.94,1.65,8.39,0.0,0.0,0.0,-4.45,1.57,8.59
1738247943.4910307,66881,0,0,,0.0,-0.19,0.16,0.91,0.32,0.09,-0.01,0.04,-4.4,1.66,8.6,0.0,0.0,0.0,-4.44,1.59,8.59
1738247943.5081785,66882,0,0,,0.0,-0.19,0.16,0.91,0.32,0.09,0.0,0.05,-4.23,2.03,8.79,0.0,0.0,0.0,-4.44,1.6,8.59
1738247943.5242026,66883,0,0,,0.0,-0.19,0.16,0.91,0.32,0.08,0.03,0.03,-5.32,1.52,8.37,0.0,0.0,0.0,-4.44,1.61,8.58
1738247943.5414171,66884,0,0,,0.0,-0.19,0.16,0.91,0.32,0.07,0.01,0.03,-4.42,1.7,8.52,0.0,0.0,0.0,-4.44,1.63,8.58
1738247943.5588198,66885,0,0,,0.0,-0.19,0.16,0.91,0.32,0.06,0.03,0.01,-4.46,1.91,8.55,0.0,0.0,0.0,-4.45,1.63,8.58
1738247943.5739915,66886,0,0,,0.0,-0.19,0.16,0.91,0.32,0.06,0.04,0.01,-4.35,1.72,8.63,0.0,0.0,0.0,-4.45,1.65,8.57
1738247943.5915017,66887,0,0,,0.0,-0.19,0.16,0.91,0.32,0.06,0.03,0.01,-4.14,1.9,8.64,0.0,0.0,0.0,-4.46,1.66,8.57
1738247943.608896,66888,0,0,,0.0,-0.19,0.16,0.91,0.32,0.06,0.06,0.0,-4.57,1.96,8.62,0.0,0.0,0.0,-4.47,1.66,8.56
1738247943.6238961,66889,0,0,,0.0,-0.19,0.16,0.91,0.32,0.06,0.06,0.0,-4.83,1.71,8.48,0.0,0.0,0.0,-4.47,1.68,8.56
1738247943.6412177,66890,0,0,,0.0,-0.19,0.16,0.91,0.32,0.06,0.07,-0.0,-4.36,1.96,8.48,0.0,0.0,0.0,-4.49,1.69,8.54
1738247943.6589468,66891,0,0,,0.0,-0.19,0.16,0.91,0.32,0.07,0.08,-0.02,-3.65,2.0,8.91,0.0,0.0,0.0,-4.49,1.7,8.54
1738247943.6752102,66892,0,0,,0.0,-0.19,0.16,0.91,0.32,0.07,0.13,-0.03,-4.85,2.15,8.35,0.0,0.0,0.0,-4.51,1.71,8.53
1738247943.69181,66893,0,0,,0.0,-0.2,0.17,0.91,0.32,0.07,0.15,-0.04,-4.64,1.83,8.31,0.0,0.0,0.0,-4.54,1.71,8.51
1738247943.7090406,66894,0,0,,0.0,-0.2,0.17,0.91,0.32,0.07,0.21,-0.07,-4.33,1.83,8.54,0.0,0.0,0.0,-4.56,1.72,8.5
1738247943.7237117,66895,0,0,,0.0,-0.2,0.17,0.91,0.32,0.07,0.33,-0.11,-4.49,1.9,8.39,0.0,0.0,0.0,-4.61,1.72,8.47
1738247943.742093,66896,0,0,,0.0,-0.2,0.17,0.91,0.32,0.07,0.39,-0.13,-4.14,1.84,8.72,0.0,0.0,0.0,-4.69,1.72,8.43
1738247943.7596352,66897,0,0,,0.0,-0.21,0.17,0.91,0.32,0.08,0.57,-0.16,-4.64,2.0,8.32,0.0,0.0,0.0,-4.73,1.72,8.41
1738247943.774415,66898,0,0,,0.0,-0.21,0.17,0.91,0.32,0.09,0.73,-0.16,-3.86,1.78,8.67,0.0,0.0,0.0,-4.84,1.72,8.34
1738247943.7922018,66899,0,0,,0.0,-0.22,0.18,0.9,0.32,0.09,0.86,-0.18,-5.19,1.53,8.38,0.0,0.0,0.0,-4.99,1.72,8.25
1738247943.809183,66900,0,0,,0.0,-0.22,0.18,0.9,0.33,0.06,1.22,-0.26,-6.43,2.38,10.62,0.0,0.0,0.0,-5.09,1.71,8.19
1738247943.8251326,66901,0,0,,0.0,-0.24,0.18,0.9,0.33,0.01,1.42,-0.31,-3.97,2.35,7.71,0.0,0.0,0.0,-5.32,1.69,8.06
1738247943.8420258,66902,0,0,,0.0,-0.25,0.19,0.89,0.33,-0.06,1.71,-0.43,-5.69,2.12,8.52,0.0,0.0,0.0,-5.62,1.62,7.86
1738247943.8599072,66903,0,0,,0.0,-0.26,0.19,0.89,0.33,-0.21,2.07,-0.54,-5.41,1.51,7.3,0.0,0.0,0.0,-5.78,1.58,7.75
1738247943.8766484,66904,0,0,,0.0,-0.29,0.19,0.88,0.33,-0.31,2.45,-0.64,-6.53,1.43,7.93,0.0,0.0,0.0,-6.15,1.46,7.49
1738247943.8928964,66905,0,0,,0.0,-0.31,0.19,0.87,0.33,-0.33,2.58,-0.64,-5.14,1.57,7.7,0.0,0.0,0.0,-6.55,1.34,7.17
1738247943.9098155,66906,0,0,,0.0,-0.32,0.2,0.87,0.33,-0.36,2.93,-0.71,-6.88,1.37,7.55,0.0,0.0,0.0,-6.76,1.26,6.99
1738247943.9269896,66907,0,0,,0.0,-0.35,0.2,0.85,0.32,-0.3,3.26,-0.81,-5.93,2.14,7.4,0.0,0.0,0.0,-7.19,1.12,6.56
1738247943.9428475,66908,0,0,,0.0,-0.39,0.21,0.84,0.32,-0.36,3.5,-0.88,-6.3,2.97,7.72,0.0,0.0,0.0,-7.66,0.93,6.05
1738247943.960312,66909,0,0,,0.0,-0.41,0.21,0.83,0.32,-0.88,4.43,-1.08,-9.56,2.5,10.83,0.0,0.0,0.0,-7.92,0.8,5.72
1738247943.9775321,66910,0,0,,0.0,-0.46,0.21,0.81,0.32,-1.19,5.66,-1.27,-11.46,1.69,12.03,0.0,0.0,0.0,-8.49,0.48,4.87
1738247943.9938438,66911,0,0,,0.0,-0.51,0.21,0.77,0.31,-1.07,5.9,-1.61,-10.32,4.4,12.25,0.0,0.0,0.0,-9.01,0.1,3.86
1738247944.01034,66912,0,0,,0.0,-0.53,0.21,0.76,0.31,-0.97,6.28,-2.09,-11.73,5.12,13.46,0.0,0.0,0.0,-9.23,-0.11,3.3
1738247944.0280042,66913,0,0,,0.0,-0.59,0.21,0.72,0.31,-1.13,6.08,-2.19,-12.88,0.76,19.68,0.0,0.0,0.0,-9.54,-0.58,2.16
1738247944.0430348,66914,0,0,,0.0,-0.61,0.21,0.7,0.32,-0.25,3.71,-2.14,-9.34,9.68,21.18,0.0,0.0,0.0,-9.61,-0.96,1.68
1738247944.060773,66915,0,0,,0.0,-0.61,0.2,0.69,0.32,-0.09,0.54,-1.82,-5.35,9.73,16.06,0.0,0.0,0.0,-9.6,-1.13,1.63
1738247944.0773551,66916,0,0,,0.0,-0.62,0.19,0.69,0.33,-0.32,-0.18,-1.38,-2.98,2.0,10.62,0.0,0.0,0.0,-9.56,-1.43,1.62
1738247944.093386,66917,0,0,,0.0,-0.62,0.18,0.69,0.34,-0.01,-0.37,-1.25,-3.56,2.96,10.7,0.0,0.0,0.0,-9.51,-1.66,1.71
1738247944.1106617,66918,0,0,,0.0,-0.61,0.18,0.69,0.34,0.05,-0.92,-1.17,-2.45,3.94,9.62,0.0,0.0,0.0,-9.47,-1.77,1.79
1738247944.1271794,66919,0,0,,0.0,-0.61,0.17,0.69,0.35,0.16,-1.64,-0.57,-2.01,3.22,9.02,0.0,0.0,0.0,-9.39,-1.9,2.06
1738247944.1441307,66920,0,0,,0.0,-0.59,0.16,0.71,0.36,0.28,-2.05,-0.27,-1.82,-0.4,7.41,0.0,0.0,0.0,-9.28,-1.91,2.48
1738247944.1608086,66921,0,0,,0.0,-0.58,0.16,0.71,0.36,0.57,-2.78,-0.0,-2.19,-0.69,7.31,0.0,0.0,0.0,-9.21,-1.9,2.74
1738247944.177573,66922,0,0,,0.0,-0.55,0.15,0.73,0.37,0.79,-3.45,-0.03,-2.96,-1.1,7.78,0.0,0.0,0.0,-9.02,-1.86,3.35
1738247944.1939423,66923,0,0,,0.0,-0.52,0.14,0.75,0.38,0.89,-3.79,-0.1,-3.97,-0.16,7.41,0.0,0.0,0.0,-8.73,-1.81,4.06
1738247944.21047,66924,0,0,,0.0,-0.5,0.14,0.76,0.39,1.08,-4.38,-0.03,-4.21,0.19,7.05,0.0,0.0,0.0,-8.55,-1.77,4.45
1738247944.2270925,66925,0,0,,0.0,-0.46,0.13,0.78,0.4,1.27,-4.7,0.36,-5.83,0.47,7.45,0.0,0.0,0.0,-8.12,-1.61,5.24
1738247944.2433138,66926,0,0,,0.0,-0.42,0.13,0.8,0.4,1.31,-4.78,0.57,-7.42,1.46,8.25,0.0,0.0,0.0,-7.62,-1.37,6.01
1738247944.261193,66927,0,0,,0.0,-0.4,0.12,0.81,0.41,1.18,-4.87,1.09,-7.86,1.96,8.14,0.0,0.0,0.0,-7.34,-1.22,6.38
1738247944.2772646,66928,0,0,,0.0,-0.35,0.12,0.84,0.4,1.12,-4.73,1.85,-9.21,0.3,7.94,0.0,0.0,0.0,-6.75,-0.84,7.05
1738247944.293431,66929,0,0,,0.0,-0.31,0.12,0.86,0.39,1.17,-4.54,2.07,-10.64,-2.65,9.1,0.0,0.0,0.0,-6.15,-0.42,7.62
1738247944.3105407,66930,0,0,,0.0,-0.29,0.12,0.87,0.39,1.33,-4.21,1.93,-13.73,-3.78,12.01,0.0,0.0,0.0,-5.84,-0.2,7.87
1738247944.3274446,66931,0,0,,0.0,-0.25,0.12,0.88,0.38,1.4,-4.25,1.56,-14.63,-3.53,10.7,0.0,0.0,0.0,-5.17,0.18,8.32
1738247944.343408,66932,0,0,,0.0,-0.21,0.12,0.89,0.38,1.37,-4.13,1.41,-14.71,-3.38,10.28,0.0,0.0,0.0,-4.49,0.54,8.69
1738247944.3607132,66933,0,0,,0.0,-0.19,0.12,0.9,0.38,1.17,-3.93,1.38,-16.28,-1.02,9.35,0.0,0.0,0.0,-4.15,0.69,8.85
1738247944.3765142,66934,0,0,,0.0,-0.15,0.11,0.91,0.37,0.89,-3.56,1.37,-15.09,-2.1,7.05,0.0,0.0,0.0,-3.49,0.96,9.11
1738247944.3936934,66935,0,0,,0.0,-0.12,0.11,0.92,0.37,0.81,-3.23,1.27,-13.21,-2.83,5.12,0.0,0.0,0.0,-2.93,1.17,9.28
1738247944.4108553,66936,0,0,,0.0,-0.11,0.11,0.92,0.36,0.79,-2.41,0.91,-12.97,-4.09,6.2,0.0,0.0,0.0,-2.7,1.26,9.34
1738247944.4269426,66937,0,0,,0.0,-0.08,0.11,0.92,0.36,0.91,-2.02,0.7,-12.81,-2.58,5.4,0.0,0.0,0.0,-2.3,1.47,9.41
1738247944.4442308,66938,0,0,,0.0,-0.06,0.12,0.92,0.36,0.82,-1.82,0.56,-12.15,-3.15,3.36,0.0,0.0,0.0,-1.98,1.63,9.46
1738247944.4611735,66939,0,0,,0.0,-0.06,0.12,0.92,0.36,0.64,-1.22,0.23,-13.08,-2.98,2.4,0.0,0.0,0.0,-1.86,1.7,9.47
1738247944.4770474,66940,0,0,,0.0,-0.05,0.12,0.92,0.36,0.21,-0.63,-0.22,-12.22,-3.45,-0.9,0.0,0.0,0.0,-1.72,1.75,9.49
1738247944.4944792,66941,0,0,,0.0,-0.05,0.12,0.92,0.36,-0.01,-0.17,-0.4,-13.36,-2.11,-2.72,0.0,0.0,0.0,-1.75,1.71,9.49
1738247944.5112352,66942,0,0,,0.0,-0.06,0.11,0.92,0.37,-0.54,0.79,-0.49,-13.93,-1.33,-2.11,0.0,0.0,0.0,-1.83,1.66,9.48
1738247944.5276694,66943,0,0,,0.0,-0.07,0.11,0.92,0.37,-1.21,1.6,-0.2,-15.0,-1.43,0.19,0.0,0.0,0.0,-2.1,1.45,9.46
1738247944.5448165,66944,0,0,,0.0,-0.09,0.11,0.92,0.36,-1.15,1.56,0.03,1.66,-1.76,8.81,0.0,0.0,0.0,-2.35,1.28,9.43
1738247944.5611205,66945,0,0,,0.0,-0.1,0.11,0.92,0.36,-0.22,1.77,-0.31,24.63,2.17,22.4,0.0,0.0,0.0,-2.51,1.25,9.39
1738247944.5782106,66946,0,0,,0.0,-0.13,0.11,0.92,0.36,-0.6,3.21,-0.35,-7.36,-9.28,5.09,0.0,0.0,0.0,-3.11,1.11,9.23
1738247944.5951238,66947,0,0,,0.0,-0.15,0.13,0.91,0.36,0.47,2.61,0.11,-7.84,8.16,6.5,0.0,0.0,0.0,-3.53,1.22,9.06
1738247944.6115553,66948,0,0,,0.0,-0.16,0.13,0.91,0.36,-0.5,2.2,0.0,-8.85,-7.9,15.64,0.0,0.0,0.0,-3.72,1.18,8.99
1738247944.628109,66949,0,0,,0.0,-0.17,0.14,0.91,0.35,0.69,1.13,0.18,-4.84,5.14,5.19,0.0,0.0,0.0,-3.95,1.27,8.88
1738247944.645194,66950,0,0,,0.0,-0.18,0.14,0.91,0.35,0.24,1.1,0.02,-4.99,1.38,7.49,0.0,0.0,0.0,-4.11,1.29,8.8
1738247944.6618295,66951,0,0,,0.0,-0.18,0.14,0.91,0.35,-0.09,0.53,-0.06,-3.97,0.67,9.46,0.0,0.0,0.0,-4.16,1.28,8.78
1738247944.6776586,66952,0,0,,0.0,-0.18,0.14,0.91,0.35,-0.08,0.54,-0.03,-4.46,0.57,8.57,0.0,0.0,0.0,-4.26,1.25,8.74
1738247944.6948438,66953,0,0,,0.0,-0.19,0.14,0.91,0.35,-0.03,0.45,0.01,-3.88,1.83,8.9,0.0,0.0,0.0,-4.33,1.25,8.7
1738247944.711756,66954,0,0,,0.0,-0.19,0.14,0.91,0.35,-0.05,0.5,0.01,-5.4,1.07,8.13,0.0,0.0,0.0,-4.38,1.25,8.68
1738247944.726989,66955,0,0,,0.0,-0.19,0.15,0.9,0.35,0.08,0.33,0.02,-5.1,1.32,8.94,0.0,0.0,0.0,-4.44,1.26,8.64
1738247944.744837,66956,0,0,,0.0,-0.2,0.15,0.9,0.35,0.14,0.23,0.06,-5.16,0.68,9.01,0.0,0.0,0.0,-4.47,1.29,8.62
1738247944.7613761,66957,0,0,,0.0,-0.2,0.15,0.9,0.35,0.23,0.1,0.11,-5.33,1.52,8.75,0.0,0.0,0.0,-4.48,1.31,8.61
1738247944.77726,66958,0,0,,0.0,-0.19,0.15,0.9,0.35,0.21,0.05,0.1,-5.42,1.78,8.42,0.0,0.0,0.0,-4.49,1.36,8.6
1738247944.7943833,66959,0,0,,0.0,-0.19,0.15,0.9,0.35,0.18,0.02,0.09,-5.23,1.25,8.51,0.0,0.0,0.0,-4.48,1.4,8.6
1738247944.8116553,66960,0,0,,0.0,-0.19,0.15,0.9,0.35,0.14,-0.05,0.07,-4.93,1.49,8.39,0.0,0.0,0.0,-4.48,1.41,8.6
1738247944.8269408,66961,0,0,,0.0,-0.19,0.16,0.9,0.35,0.09,-0.04,0.05,-4.75,1.11,8.46,0.0,0.0,0.0,-4.47,1.43,8.6
1738247944.844356,66962,0,0,,0.0,-0.19,0.16,0.9,0.35,0.09,-0.05,0.05,-5.05,1.67,8.47,0.0,0.0,0.0,-4.46,1.45,8.6
1738247944.8613791,66963,0,0,,0.0,-0.19,0.16,0.9,0.35,0.06,-0.04,0.04,-4.74,1.91,8.4,0.0,0.0,0.0,-4.46,1.46,8.6
1738247944.8768802,66964,0,0,,0.0,-0.19,0.16,0.9,0.35,0.06,-0.06,0.03,-4.56,1.64,8.62,0.0,0.0,0.0,-4.45,1.47,8.61
1738247944.8943675,66965,0,0,,0.0,-0.19,0.16,0.9,0.35,0.03,-0.03,0.03,-5.07,1.15,8.3,0.0,0.0,0.0,-4.44,1.48,8.61
1738247944.9113338,66966,0,0,,0.0,-0.19,0.16,0.9,0.35,0.02,-0.03,0.02,-4.75,1.44,8.34,0.0,0.0,0.0,-4.44,1.48,8.61
1738247944.9265907,66967,0,0,,0.0,-0.19,0.16,0.91,0.35,0.02,-0.05,0.01,-4.74,1.54,8.45,0.0,0.0,0.0,-4.43,1.49,8.61
1738247944.944147,66968,0,0,,0.0,-0.19,0.16,0.91,0.35,0.02,-0.05,0.01,-4.62,1.82,8.33,0.0,0.0,0.0,-4.42,1.49,8.62
1738247944.9605877,66969,0,0,,0.0,-0.19,0.16,0.91,0.35,0.05,-0.08,0.03,-4.03,1.95,8.74,0.0,0.0,0.0,-4.42,1.5,8.62
1738247944.9761837,66970,0,0,,0.0,-0.19,0.16,0.91,0.35,0.07,-0.02,0.04,-4.87,1.51,8.48,0.0,0.0,0.0,-4.41,1.51,8.62
1738247944.992717,66971,0,0,,0.0,-0.19,0.16,0.91,0.35,0.08,-0.01,0.04,-5.17,1.31,8.25,0.0,0.0,0.0,-4.42,1.52,8.61
1738247945.0097945,66972,0,0,,0.0,-0.19,0.16,0.91,0.35,0.09,-0.01,0.06,-4.37,1.6,8.54,0.0,0.0,0.0,-4.42,1.54,8.61
1738247945.0242536,66973,0,0,,0.0,-0.19,0.16,0.91,0.35,0.09,0.01,0.06,-4.48,1.79,8.55,0.0,0.0,0.0,-4.42,1.56,8.61
1738247945.0422668,66974,0,0,,0.0,-0.19,0.16,0.91,0.35,0.09,0.01,0.05,-4.41,1.72,8.62,0.0,0.0,0.0,-4.42,1.57,8.6
1738247945.0599003,66975,0,0,,0.0,-0.19,0.16,0.91,0.35,0.08,0.04,0.03,-4.41,1.8,8.6,0.0,0.0,0.0,-4.43,1.59,8.59
1738247945.0749936,66976,0,0,,0.0,-0.19,0.16,0.9,0.35,0.08,0.05,0.03,-5.1,1.67,8.38,0.0,0.0,0.0,-4.44,1.61,8.59
1738247945.0922713,66977,0,0,,0.0,-0.19,0.16,0.9,0.35,0.07,0.06,0.02,-4.96,1.75,8.31,0.0,0.0,0.0,-4.45,1.62,8.58
1738247945.1097524,66978,0,0,,0.0,-0.19,0.16,0.9,0.35,0.07,0.05,0.01,-5.18,1.64,8.46,0.0,0.0,0.0,-4.47,1.63,8.57
1738247945.1249697,66979,0,0,,0.0,-0.19,0.17,0.9,0.35,0.07,0.04,0.01,-4.78,1.93,8.37,0.0,0.0,0.0,-4.48,1.64,8.56
1738247945.142852,66980,0,0,,0.0,-0.19,0.17,0.9,0.35,0.07,0.06,0.01,-4.8,1.63,8.46,0.0,0.0,0.0,-4.49,1.65,8.55
1738247945.1602795,66981,0,0,,0.0,-0.19,0.17,0.9,0.35,0.08,0.07,0.01,-4.28,1.85,8.68,0.0,0.0,0.0,-4.5,1.66,8.54
1738247945.1753435,66982,0,0,,0.0,-0.19,0.17,0.9,0.35,0.08,0.09,0.0,-4.74,1.75,8.33,0.0,0.0,0.0,-4.52,1.68,8.53
1738247945.1929898,66983,0,0,,0.0,-0.19,0.17,0.9,0.35,0.09,0.12,-0.0,-4.05,1.94,8.61,0.0,0.0,0.0,-4.53,1.68,8.52
1738247945.2100523,66984,0,0,,0.0,-0.19,0.17,0.9,0.35,0.09,0.16,-0.02,-4.53,1.97,8.24,0.0,0.0,0.0,-4.55,1.7,8.51
1738247945.225052,66985,0,0,,0.0,-0.19,0.17,0.9,0.35,0.09,0.19,-0.04,-3.84,2.08,8.61,0.0,0.0,0.0,-4.59,1.71,8.49
1738247945.2428179,66986,0,0,,0.0,-0.19,0.17,0.9,0.35,0.09,0.27,-0.08,-4.56,1.73,8.62,0.0,0.0,0.0,-4.61,1.72,8.48
1738247945.2606099,66987,0,0,,0.0,-0.2,0.17,0.9,0.35,0.08,0.44,-0.14,-4.62,1.68,8.54,0.0,0.0,0.0,-4.68,1.72,8.44
1738247945.2751238,66988,0,0,,0.0,-0.2,0.18,0.9,0.35,0.08,0.52,-0.16,-4.04,2.16,8.71,0.0,0.0,0.0,-4.76,1.72,8.39
1738247945.2931685,66989,0,0,,0.0,-0.21,0.18,0.9,0.35,0.08,0.69,-0.18,-5.16,1.73,8.15,0.0,0.0,0.0,-4.82,1.72,8.36
1738247945.3103404,66990,0,0,,0.0,-0.21,0.18,0.9,0.35,0.09,0.87,-0.2,-4.04,1.92,8.64,0.0,0.0,0.0,-4.95,1.72,8.28
1738247945.3257022,66991,0,0,,0.0,-0.22,0.18,0.89,0.35,0.08,1.0,-0.22,-4.08,2.14,8.26,0.0,0.0,0.0,-5.14,1.71,8.17
1738247945.343485,66992,0,0,,0.0,-0.23,0.19,0.89,0.35,0.02,1.37,-0.29,-6.82,2.35,10.44,0.0,0.0,0.0,-5.25,1.69,8.1
1738247945.3610992,66993,0,0,,0.0,-0.24,0.19,0.89,0.35,-0.06,1.63,-0.41,-3.22,1.84,7.14,0.0,0.0,0.0,-5.5,1.65,7.94
1738247945.3757963,66994,0,0,,0.0,-0.26,0.19,0.88,0.35,-0.18,1.96,-0.52,-6.96,1.39,8.12,0.0,0.0,0.0,-5.82,1.56,7.73
1738247945.3942132,66995,0,0,,0.0,-0.28,0.2,0.87,0.35,-0.28,2.16,-0.63,-3.39,1.93,8.08,0.0,0.0,0.0,-5.99,1.5,7.61
1738247945.4115973,66996,0,0,,0.0,-0.29,0.2,0.87,0.35,-0.36,2.52,-0.64,-6.52,1.51,7.33,0.0,0.0,0.0,-6.36,1.37,7.32
1738247945.4265046,66997,0,0,,0.0,-0.32,0.2,0.86,0.35,-0.36,2.66,-0.65,-6.47,1.78,7.82,0.0,0.0,0.0,-6.76,1.24,6.99
1738247945.4449525,66998,0,0,,0.0,-0.35,0.21,0.85,0.35,-0.34,2.92,-0.72,-6.24,1.47,7.24,0.0,0.0,0.0,-6.96,1.17,6.8
1738247945.4616225,66999,0,0,,0.0,-0.36,0.21,0.84,0.35,-0.39,3.39,-0.86,-7.2,2.61,7.7,0.0,0.0,0.0,-7.39,1.01,6.35
1738247945.4769845,67000,0,0,,0.0,-0.4,0.21,0.82,0.34,-0.54,3.69,-0.96,-7.63,3.08,10.15,0.0,0.0,0.0,-7.87,0.78,5.78
1738247945.4954784,67001,0,0,,0.0,-0.45,0.22,0.8,0.34,-1.18,4.86,-1.23,-10.23,2.5,10.9,0.0,0.0,0.0,-8.15,0.62,5.41
1738247945.5121114,67002,0,0,,0.0,-0.47,0.22,0.79,0.33,-1.27,5.74,-1.54,-11.37,1.0,11.91,0.0,0.0,0.0,-8.69,0.26,4.52
1738247945.5268657,67003,0,0,,0.0,-0.52,0.22,0.75,0.33,-1.11,5.93,-1.87,-10.77,3.9,12.39,0.0,0.0,0.0,-9.16,-0.16,3.47
1738247945.5458899,67004,0,0,,0.0,-0.58,0.22,0.72,0.33,-1.32,6.28,-2.23,-10.97,4.81,16.47,0.0,0.0,0.0,-9.35,-0.4,2.91
1738247945.5626528,67005,0,0,,0.0,-0.6,0.22,0.7,0.33,-0.77,4.78,-2.1,-19.55,-5.45,23.42,0.0,0.0,0.0,-9.58,-0.85,1.87
1738247945.5776286,67006,0,0,,0.0,-0.61,0.21,0.69,0.34,0.1,0.62,-1.79,-3.3,8.58,14.6,0.0,0.0,0.0,-9.59,-1.18,1.63
1738247945.596271,67007,0,0,,0.0,-0.62,0.2,0.68,0.34,-0.52,0.26,-1.68,-4.71,6.89,12.18,0.0,0.0,0.0,-9.57,-1.35,1.6
1738247945.612766,67008,0,0,,0.0,-0.62,0.19,0.68,0.35,-0.26,-0.32,-1.14,-2.95,2.89,11.01,0.0,0.0,0.0,-9.53,-1.6,1.62
1738247945.628099,67009,0,0,,0.0,-0.61,0.18,0.68,0.35,-0.05,-0.91,-0.94,-3.35,2.89,10.71,0.0,0.0,0.0,-9.48,-1.79,1.75
1738247945.6469142,67010,0,0,,0.0,-0.6,0.18,0.69,0.36,0.03,-1.31,-0.8,-2.74,2.47,9.99,0.0,0.0,0.0,-9.44,-1.86,1.87
1738247945.6623354,67011,0,0,,0.0,-0.6,0.17,0.69,0.37,0.31,-2.09,-0.36,-2.51,1.41,9.08,0.0,0.0,0.0,-9.35,-1.93,2.23
1738247945.6776233,67012,0,0,,0.0,-0.58,0.16,0.71,0.37,0.46,-2.84,-0.07,-2.6,-0.32,7.72,0.0,0.0,0.0,-9.21,-1.94,2.72
1738247945.6966348,67013,0,0,,0.0,-0.55,0.16,0.72,0.38,0.54,-3.12,-0.01,-3.02,-0.56,7.72,0.0,0.0,0.0,-9.13,-1.92,3.01
1738247945.713216,67014,0,0,,0.0,-0.54,0.15,0.73,0.39,0.66,-3.72,0.01,-4.31,-0.97,7.8,0.0,0.0,0.0,-8.9,-1.88,3.65
1738247945.7280424,67015,0,0,,0.0,-0.51,0.14,0.75,0.4,0.83,-4.2,0.02,-5.69,0.65,7.32,0.0,0.0,0.0,-8.58,-1.82,4.38
1738247945.7471714,67016,0,0,,0.0,-0.47,0.13,0.77,0.4,0.87,-4.37,0.12,-6.21,0.58,7.36,0.0,0.0,0.0,-8.39,-1.77,4.75
1738247945.7632437,67017,0,0,,0.0,-0.45,0.13,0.78,0.41,1.03,-4.61,0.44,-7.18,0.38,7.2,0.0,0.0,0.0,-7.95,-1.61,5.5
1738247945.7778223,67018,0,0,,0.0,-0.41,0.12,0.8,0.41,1.03,-4.64,0.84,-8.64,2.67,7.01,0.0,0.0,0.0,-7.44,-1.38,6.23
1738247945.797749,67019,0,0,,0.0,-0.37,0.12,0.83,0.41,0.98,-4.59,1.21,-9.14,3.36,6.9,0.0,0.0,0.0,-7.17,-1.24,6.57
1738247945.8134813,67020,0,0,,0.0,-0.35,0.11,0.84,0.41,0.79,-4.34,2.07,-10.05,1.76,7.25,0.0,0.0,0.0,-6.62,-0.88,7.17
1738247945.8280652,67021,0,0,,0.0,-0.31,0.11,0.86,0.39,0.87,-4.04,2.59,-11.84,0.03,9.46,0.0,0.0,0.0,-6.06,-0.45,7.69
1738247945.8478115,67022,0,0,,0.0,-0.27,0.11,0.88,0.38,0.92,-4.0,2.65,-12.72,-1.01,10.26,0.0,0.0,0.0,-5.77,-0.23,7.92
1738247945.8634608,67023,0,0,,0.0,-0.25,0.11,0.89,0.37,0.95,-3.95,2.38,-13.63,-4.64,10.37,0.0,0.0,0.0,-5.14,0.17,8.34
1738247945.8793864,67024,0,0,,0.0,-0.21,0.11,0.9,0.36,1.04,-3.84,1.72,-14.23,-4.96,10.23,0.0,0.0,0.0,-4.49,0.52,8.69
1738247945.8986223,67025,0,0,,0.0,-0.17,0.11,0.91,0.36,0.98,-3.75,1.37,-14.21,-3.8,8.38,0.0,0.0,0.0,-3.85,0.78,8.98
1738247945.9137723,67026,0,0,,0.0,-0.16,0.11,0.92,0.35,0.97,-3.19,0.84,-12.14,-4.37,4.51,0.0,0.0,0.0,-3.56,0.9,9.09
1738247945.9299748,67027,0,0,,0.0,-0.13,0.11,0.92,0.35,0.94,-2.07,0.34,-13.13,-1.75,4.36,0.0,0.0,0.0,-3.14,1.1,9.22
1738247945.9497383,67028,0,0,,0.0,-0.11,0.12,0.92,0.35,0.93,-1.61,0.27,-14.83,-0.37,5.62,0.0,0.0,0.0,-2.86,1.29,9.29
1738247945.964157,67029,0,0,,0.0,-0.11,0.12,0.92,0.35,0.77,-1.32,0.62,-15.39,1.28,4.83,0.0,0.0,0.0,-2.73,1.37,9.31
1738247945.9808743,67030,0,0,,0.0,-0.1,0.12,0.93,0.35,0.25,-0.84,0.81,-13.6,-1.87,1.5,0.0,0.0,0.0,-2.53,1.48,9.35
1738247945.9997563,67031,0,0,,0.0,-0.09,0.12,0.93,0.34,0.03,-0.54,0.77,-14.32,-2.58,1.92,0.0,0.0,0.0,-2.42,1.49,9.38
1738247946.0149348,67032,0,0,,0.0,-0.09,0.11,0.93,0.34,-0.5,-0.28,0.42,-14.04,-4.3,1.11,0.0,0.0,0.0,-2.39,1.46,9.39
1738247946.0312123,67033,0,0,,0.0,-0.09,0.11,0.93,0.34,-0.78,0.08,0.03,-12.62,-4.01,-0.29,0.0,0.0,0.0,-2.38,1.33,9.41
1738247946.0502448,67034,0,0,,0.0,-0.1,0.1,0.93,0.34,-0.83,0.38,-0.09,-14.34,-2.89,0.35,0.0,0.0,0.0,-2.48,1.17,9.41
1738247946.0648482,67035,0,0,,0.0,-0.1,0.1,0.93,0.34,-0.69,0.82,-0.08,-12.53,-2.13,-1.37,0.0,0.0,0.0,-2.55,1.11,9.4
1738247946.081535,67036,0,0,,0.0,-0.11,0.1,0.93,0.34,-0.28,0.81,-0.14,14.98,0.04,16.59,0.0,0.0,0.0,-2.72,1.03,9.36
1738247946.100202,67037,0,0,,0.0,-0.14,0.1,0.93,0.34,0.15,1.84,-0.42,-13.42,2.52,12.73,0.0,0.0,0.0,-3.19,0.94,9.22
1738247946.1150544,67038,0,0,,0.0,-0.16,0.11,0.92,0.33,-0.56,2.75,-0.36,-7.97,-5.86,7.48,0.0,0.0,0.0,-3.44,0.88,9.13
1738247946.1311922,67039,0,0,,0.0,-0.17,0.11,0.92,0.33,-0.59,1.71,0.14,-8.12,-13.86,16.53,0.0,0.0,0.0,-3.79,0.81,9.0
1738247946.1507137,67040,0,0,,0.0,-0.18,0.11,0.92,0.33,0.18,1.06,0.07,-4.53,4.27,7.73,0.0,0.0,0.0,-3.94,0.92,8.92
1738247946.1651006,67041,0,0,,0.0,-0.18,0.12,0.92,0.33,0.66,0.82,0.35,-6.63,1.09,11.71,0.0,0.0,0.0,-4.01,0.99,8.89
1738247946.1814213,67042,0,0,,0.0,-0.18,0.13,0.92,0.33,0.63,0.57,0.32,-5.09,1.53,8.19,0.0,0.0,0.0,-4.12,1.12,8.82
1738247946.200672,67043,0,0,,0.0,-0.19,0.13,0.92,0.32,0.55,0.49,0.26,-4.76,2.23,7.94,0.0,0.0,0.0,-4.2,1.22,8.77
1738247946.2174177,67044,0,0,,0.0,-0.19,0.14,0.92,0.32,0.24,0.56,0.11,-5.17,1.27,8.68,0.0,0.0,0.0,-4.25,1.24,8.74
1738247946.2312613,67045,0,0,,0.0,-0.19,0.14,0.92,0.32,0.14,0.42,0.05,-3.55,2.58,8.64,0.0,0.0,0.0,-4.32,1.28,8.7
1738247946.2501013,67046,0,0,,0.0,-0.2,0.14,0.92,0.32,0.08,0.47,0.01,-5.37,0.45,8.65,0.0,0.0,0.0,-4.39,1.29,8.66
1738247946.2654114,67047,0,0,,0.0,-0.2,0.14,0.92,0.32,0.18,0.32,0.04,-5.68,1.13,8.94,0.0,0.0,0.0,-4.42,1.31,8.65
1738247946.2815964,67048,0,0,,0.0,-0.2,0.15,0.91,0.32,0.27,0.2,0.1,-5.85,1.19,8.26,0.0,0.0,0.0,-4.45,1.36,8.62
1738247946.3007953,67049,0,0,,0.0,-0.2,0.15,0.91,0.32,0.29,0.15,0.12,-5.67,1.62,8.78,0.0,0.0,0.0,-4.46,1.42,8.61
1738247946.315649,67050,0,0,,0.0,-0.2,0.15,0.91,0.32,0.21,0.05,0.09,-5.23,1.72,8.61,0.0,0.0,0.0,-4.47,1.44,8.6
1738247946.3319626,67051,0,0,,0.0,-0.2,0.15,0.91,0.32,0.15,-0.02,0.07,-5.07,2.01,8.57,0.0,0.0,0.0,-4.46,1.47,8.6
1738247946.3505788,67052,0,0,,0.0,-0.2,0.15,0.91,0.32,0.13,-0.05,0.06,-4.84,1.82,8.38,0.0,0.0,0.0,-4.45,1.5,8.6
1738247946.3653665,67053,0,0,,0.0,-0.2,0.15,0.91,0.32,0.06,-0.04,0.03,-4.96,1.26,8.31,0.0,0.0,0.0,-4.45,1.5,8.6
1738247946.3824863,67054,0,0,,0.0,-0.19,0.15,0.91,0.32,0.06,-0.07,0.03,-3.84,1.98,8.76,0.0,0.0,0.0,-4.44,1.52,8.61
1738247946.400891,67055,0,0,,0.0,-0.19,0.15,0.91,0.32,0.04,-0.04,0.02,-4.79,1.48,8.4,0.0,0.0,0.0,-4.43,1.52,8.61
1738247946.4159827,67056,0,0,,0.0,-0.19,0.15,0.91,0.32,0.02,-0.05,0.01,-4.61,1.91,8.32,0.0,0.0,0.0,-4.42,1.52,8.61
1738247946.4313388,67057,0,0,,0.0,-0.19,0.15,0.92,0.32,0.0,-0.04,-0.0,-4.98,1.8,8.32,0.0,0.0,0.0,-4.42,1.53,8.61
1738247946.4510658,67058,0,0,,0.0,-0.19,0.15,0.92,0.32,0.0,-0.05,-0.0,-4.69,1.52,8.35,0.0,0.0,0.0,-4.42,1.53,8.61
1738247946.465478,67059,0,0,,0.0,-0.19,0.15,0.92,0.32,0.02,-0.08,-0.01,-4.21,1.99,8.68,0.0,0.0,0.0,-4.41,1.53,8.62
1738247946.4803877,67060,0,0,,0.0,-0.19,0.15,0.92,0.32,0.02,-0.06,-0.0,-4.68,1.56,8.55,0.0,0.0,0.0,-4.4,1.54,8.62
1738247946.5000012,67061,0,0,,0.0,-0.19,0.15,0.92,0.32,0.03,-0.06,0.01,-4.48,1.7,8.46,0.0,0.0,0.0,-4.39,1.55,8.62
1738247946.5140731,67062,0,0,,0.0,-0.19,0.15,0.92,0.32,0.05,-0.03,0.02,-4.5,1.71,8.46,0.0,0.0,0.0,-4.39,1.56,8.62
1738247946.5285518,67063,0,0,,0.0,-0.19,0.15,0.92,0.32,0.07,-0.02,0.03,-4.41,1.94,8.56,0.0,0.0,0.0,-4.39,1.57,8.62
1738247946.5481217,67064,0,0,,0.0,-0.19,0.16,0.92,0.32,0.09,-0.0,0.04,-4.62,1.61,8.57,0.0,0.0,0.0,-4.39,1.58,8.62
1738247946.563443,67065,0,0,,0.0,-0.19,0.16,0.92,0.32,0.09,0.02,0.04,-4.85,1.58,8.56,0.0,0.0,0.0,-4.39,1.6,8.61
1738247946.5783458,67066,0,0,,0.0,-0.19,0.16,0.92,0.32,0.09,0.02,0.03,-4.09,1.98,8.57,0.0,0.0,0.0,-4.39,1.62,8.61
1738247946.5976727,67067,0,0,,0.0,-0.19,0.16,0.92,0.32,0.09,0.05,0.02,-4.99,1.78,8.38,0.0,0.0,0.0,-4.4,1.63,8.61
1738247946.613235,67068,0,0,,0.0,-0.19,0.16,0.91,0.32,0.08,0.02,0.01,-4.17,1.91,8.6,0.0,0.0,0.0,-4.4,1.64,8.6
1738247946.6278892,67069,0,0,,0.0,-0.19,0.16,0.91,0.32,0.08,0.03,0.01,-4.75,1.72,8.44,0.0,0.0,0.0,-4.41,1.66,8.59
1738247946.6460502,67070,0,0,,0.0,-0.19,0.16,0.91,0.32,0.07,0.04,0.01,-5.13,1.67,8.41,0.0,0.0,0.0,-4.42,1.67,8.59
1738247946.6623034,67071,0,0,,0.0,-0.19,0.16,0.91,0.32,0.07,0.06,0.0,-4.82,1.71,8.2,0.0,0.0,0.0,-4.43,1.68,8.58
1738247946.6772864,67072,0,0,,0.0,-0.19,0.16,0.91,0.32,0.07,0.07,0.0,-4.6,1.76,8.55,0.0,0.0,0.0,-4.43,1.69,8.57
1738247946.69372,67073,0,0,,0.0,-0.19,0.16,0.91,0.32,0.08,0.07,-0.01,-4.07,1.84,8.5,0.0,0.0,0.0,-4.45,1.7,8.56
1738247946.71186,67074,0,0,,0.0,-0.19,0.16,0.91,0.32,0.07,0.1,-0.01,-5.02,1.5,8.32,0.0,0.0,0.0,-4.47,1.71,8.55
1738247946.726639,67075,0,0,,0.0,-0.19,0.16,0.91,0.32,0.08,0.15,-0.03,-4.94,1.97,8.58,0.0,0.0,0.0,-4.49,1.72,8.54
1738247946.7433755,67076,0,0,,0.0,-0.2,0.17,0.91,0.32,0.07,0.21,-0.07,-4.63,1.91,8.4,0.0,0.0,0.0,-4.52,1.73,8.52
1738247946.7615108,67077,0,0,,0.0,-0.2,0.17,0.91,0.32,0.06,0.26,-0.09,-4.85,1.68,8.42,0.0,0.0,0.0,-4.58,1.73,8.49
1738247946.7763388,67078,0,0,,0.0,-0.2,0.17,0.91,0.32,0.07,0.43,-0.12,-4.19,1.8,8.57,0.0,0.0,0.0,-4.62,1.73,8.47
1738247946.7923825,67079,0,0,,0.0,-0.2,0.17,0.91,0.32,0.11,0.63,-0.12,-4.76,1.6,8.5,0.0,0.0,0.0,-4.71,1.74,8.41
1738247946.8114114,67080,0,0,,0.0,-0.21,0.17,0.91,0.32,0.13,0.73,-0.12,-5.02,1.69,8.68,0.0,0.0,0.0,-4.84,1.75,8.34
1738247946.826454,67081,0,0,,0.0,-0.22,0.18,0.91,0.32,0.16,0.98,-0.15,-4.73,1.97,7.88,0.0,0.0,0.0,-4.92,1.75,8.29
1738247946.8433518,67082,0,0,,0.0,-0.23,0.18,0.9,0.32,0.13,1.39,-0.27,-5.91,1.78,10.19,0.0,0.0,0.0,-5.14,1.75,8.16
1738247946.8617723,67083,0,0,,0.0,-0.24,0.19,0.9,0.32,0.13,1.49,-0.29,-3.1,2.23,6.87,0.0,0.0,0.0,-5.39,1.74,8.0
1738247946.876644,67084,0,0,,0.0,-0.25,0.19,0.89,0.32,0.01,1.98,-0.54,-5.02,2.43,8.1,0.0,0.0,0.0,-5.55,1.71,7.89
1738247946.8937185,67085,0,0,,0.0,-0.27,0.19,0.89,0.32,-0.13,2.27,-0.66,-4.06,1.79,7.27,0.0,0.0,0.0,-5.91,1.62,7.65
1738247946.9120948,67086,0,0,,0.0,-0.29,0.2,0.88,0.32,-0.2,2.46,-0.71,-7.61,1.92,7.71,0.0,0.0,0.0,-6.3,1.5,7.35
1738247946.927041,67087,0,0,,0.0,-0.32,0.2,0.87,0.32,-0.28,2.85,-0.72,-6.26,1.66,7.17,0.0,0.0,0.0,-6.52,1.44,7.18
1738247946.9439425,67088,0,0,,0.0,-0.34,0.2,0.86,0.32,-0.26,3.12,-0.8,-7.17,1.76,6.86,0.0,0.0,0.0,-6.95,1.3,6.79
1738247946.9622042,67089,0,0,,0.0,-0.37,0.21,0.85,0.32,-0.24,3.25,-0.82,-6.18,2.0,6.75,0.0,0.0,0.0,-7.39,1.15,6.33
1738247946.976758,67090,0,0,,0.0,-0.38,0.21,0.84,0.32,-0.39,3.72,-0.92,-6.89,2.42,7.87,0.0,0.0,0.0,-7.63,1.06,6.06
1738247946.9938793,67091,0,0,,0.0,-0.42,0.22,0.82,0.32,-0.77,4.71,-1.05,-8.88,0.64,9.64,0.0,0.0,0.0,-8.13,0.83,5.4
1738247947.0127733,67092,0,0,,0.0,-0.47,0.22,0.79,0.31,-0.76,5.48,-1.1,-12.19,1.21,12.12,0.0,0.0,0.0,-8.7,0.57,4.48
1738247947.0273447,67093,0,0,,0.0,-0.52,0.22,0.76,0.31,-1.02,6.14,-1.44,-11.68,2.3,11.27,0.0,0.0,0.0,-8.95,0.4,3.96
1738247947.044225,67094,0,0,,0.0,-0.55,0.22,0.74,0.3,-1.28,6.42,-1.82,-11.6,7.28,14.18,0.0,0.0,0.0,-9.38,0.02,2.84
1738247947.0622568,67095,0,0,,0.0,-0.6,0.22,0.71,0.29,-1.66,6.53,-1.93,-18.29,-3.87,24.54,0.0,0.0,0.0,-9.64,-0.39,1.73
1738247947.0773537,67096,0,0,,0.0,-0.61,0.22,0.7,0.3,-0.28,2.74,-1.62,-15.09,4.22,22.55,0.0,0.0,0.0,-9.67,-0.55,1.47
1738247947.0938916,67097,0,0,,0.0,-0.62,0.21,0.69,0.3,-0.41,-0.29,-1.65,-2.38,3.75,11.72,0.0,0.0,0.0,-9.66,-0.86,1.44
1738247947.1125011,67098,0,0,,0.0,-0.62,0.19,0.69,0.32,-0.47,-0.28,-1.78,-4.07,0.66,9.58,0.0,0.0,0.0,-9.61,-1.21,1.51
1738247947.1273923,67099,0,0,,0.0,-0.62,0.19,0.69,0.32,0.36,-0.67,-1.86,-4.49,4.71,10.24,0.0,0.0,0.0,-9.57,-1.38,1.57
1738247947.1440494,67100,0,0,,0.0,-0.61,0.18,0.69,0.34,0.3,-1.27,-1.47,-3.94,5.67,10.67,0.0,0.0,0.0,-9.49,-1.67,1.78
1738247947.1620846,67101,0,0,,0.0,-0.6,0.17,0.7,0.35,0.31,-1.7,-1.05,-3.04,5.15,9.66,0.0,0.0,0.0,-9.39,-1.81,2.14
1738247947.17751,67102,0,0,,0.0,-0.59,0.17,0.7,0.35,0.5,-2.33,-0.35,-2.14,2.02,7.98,0.0,0.0,0.0,-9.33,-1.83,2.36
1738247947.1942122,67103,0,0,,0.0,-0.57,0.16,0.72,0.36,0.61,-2.94,-0.07,-2.89,0.54,7.91,0.0,0.0,0.0,-9.19,-1.82,2.88
1738247947.2127388,67104,0,0,,0.0,-0.55,0.15,0.74,0.37,0.62,-3.27,-0.05,-3.9,-0.11,7.79,0.0,0.0,0.0,-8.97,-1.79,3.5
1738247947.2278216,67105,0,0,,0.0,-0.53,0.15,0.75,0.38,0.66,-3.88,0.02,-3.89,0.03,7.41,0.0,0.0,0.0,-8.84,-1.76,3.85
1738247947.2438338,67106,0,0,,0.0,-0.5,0.14,0.77,0.38,0.74,-4.26,0.34,-5.24,0.45,7.71,0.0,0.0,0.0,-8.5,-1.66,4.58
1738247947.2628958,67107,0,0,,0.0,-0.46,0.13,0.79,0.39,0.78,-4.43,0.57,-5.76,-0.35,7.69,0.0,0.0,0.0,-8.09,-1.48,5.32
1738247947.2776859,67108,0,0,,0.0,-0.44,0.13,0.8,0.39,0.91,-4.63,0.8,-6.79,-0.87,7.77,0.0,0.0,0.0,-7.86,-1.37,5.69
1738247947.2942414,67109,0,0,,0.0,-0.4,0.12,0.82,0.39,0.84,-4.66,1.15,-8.33,1.9,7.81,0.0,0.0,0.0,-7.34,-1.11,6.4
1738247947.3127937,67110,0,0,,0.0,-0.36,0.11,0.84,0.39,0.76,-4.6,1.48,-9.24,2.21,7.9,0.0,0.0,0.0,-6.77,-0.79,7.04
1738247947.3278885,67111,0,0,,0.0,-0.34,0.11,0.85,0.38,0.62,-4.39,2.12,-10.06,0.43,7.98,0.0,0.0,0.0,-6.48,-0.62,7.32
1738247947.3440764,67112,0,0,,0.0,-0.3,0.11,0.87,0.37,0.75,-4.02,2.4,-12.24,-1.32,10.62,0.0,0.0,0.0,-5.9,-0.23,7.82
1738247947.3631716,67113,0,0,,0.0,-0.26,0.11,0.89,0.35,0.82,-3.97,2.39,-13.95,-1.76,10.05,0.0,0.0,0.0,-5.28,0.13,8.25
1738247947.3781545,67114,0,0,,0.0,-0.24,0.11,0.9,0.35,0.73,-3.84,2.07,-14.64,-3.04,9.58,0.0,0.0,0.0,-4.96,0.29,8.44
1738247947.3945267,67115,0,0,,0.0,-0.2,0.11,0.91,0.34,0.69,-3.6,1.71,-15.55,-2.13,9.65,0.0,0.0,0.0,-4.34,0.58,8.77
1738247947.4130573,67116,0,0,,0.0,-0.17,0.11,0.92,0.33,0.69,-3.49,1.58,-15.72,-1.92,8.71,0.0,0.0,0.0,-3.72,0.82,9.03
1738247947.4283266,67117,0,0,,0.0,-0.15,0.1,0.93,0.32,0.74,-3.36,1.28,-14.99,-3.11,7.3,0.0,0.0,0.0,-3.41,0.93,9.14
1738247947.444148,67118,0,0,,0.0,-0.12,0.1,0.93,0.32,0.85,-2.99,0.74,-14.85,-3.25,7.04,0.0,0.0,0.0,-2.84,1.13,9.31
1738247947.462845,67119,0,0,,0.0,-0.09,0.1,0.94,0.32,0.9,-2.89,0.54,-14.62,-2.25,6.29,0.0,0.0,0.0,-2.32,1.3,9.43
1738247947.4778793,67120,0,0,,0.0,-0.08,0.1,0.94,0.32,0.68,-2.51,0.21,-11.9,-1.89,2.58,0.0,0.0,0.0,-2.09,1.37,9.48
1738247947.4943635,67121,0,0,,0.0,-0.06,0.1,0.94,0.32,0.62,-1.78,0.1,-11.39,-1.41,1.05,0.0,0.0,0.0,-1.72,1.49,9.53
1738247947.5125237,67122,0,0,,0.0,-0.05,0.1,0.94,0.32,0.52,-1.35,0.06,-11.24,-1.48,0.22,0.0,0.0,0.0,-1.51,1.58,9.55
1738247947.5279388,67123,0,0,,0.0,-0.04,0.1,0.94,0.32,0.29,-0.44,-0.02,-11.84,-1.63,-1.09,0.0,0.0,0.0,-1.47,1.61,9.55
1738247947.5440795,67124,0,0,,0.0,-0.05,0.1,0.94,0.32,-0.18,0.49,-0.09,-12.23,-1.38,-1.48,0.0,0.0,0.0,-1.52,1.6,9.55
1738247947.5626805,67125,0,0,,0.0,-0.06,0.1,0.94,0.32,-0.45,0.91,-0.09,-13.09,-1.08,-0.35,0.0,0.0,0.0,-1.72,1.49,9.53
1738247947.5778944,67126,0,0,,0.0,-0.07,0.1,0.94,0.32,-0.89,1.5,0.01,-13.75,-0.76,1.95,0.0,0.0,0.0,-1.86,1.41,9.52
1738247947.5945888,67127,0,0,,0.0,-0.08,0.1,0.94,0.32,-0.66,1.38,0.26,-4.07,-2.01,8.07,0.0,0.0,0.0,-2.13,1.27,9.48
1738247947.612853,67128,0,0,,0.0,-0.1,0.11,0.94,0.32,0.01,1.23,0.07,23.12,-2.92,16.04,0.0,0.0,0.0,-2.51,1.3,9.38
1738247947.6280503,67129,0,0,,0.0,-0.12,0.11,0.93,0.32,-0.18,3.92,-0.52,-12.81,-8.83,5.36,0.0,0.0,0.0,-2.87,1.27,9.28
1738247947.6434877,67130,0,0,,0.0,-0.14,0.12,0.93,0.32,0.81,2.19,0.11,-11.29,8.56,3.91,0.0,0.0,0.0,-3.34,1.39,9.11
1738247947.6628175,67131,0,0,,0.0,-0.16,0.13,0.93,0.32,-0.17,2.11,0.01,-6.78,-0.97,11.3,0.0,0.0,0.0,-3.68,1.34,8.98
1738247947.6775463,67132,0,0,,0.0,-0.16,0.13,0.92,0.32,0.12,1.31,0.14,-7.0,1.12,7.07,0.0,0.0,0.0,-3.79,1.36,8.93
1738247947.693696,67133,0,0,,0.0,-0.17,0.14,0.92,0.32,0.03,0.94,-0.0,-8.51,3.72,12.65,0.0,0.0,0.0,-3.95,1.38,8.86
1738247947.7127585,67134,0,0,,0.0,-0.18,0.14,0.92,0.32,-0.01,0.66,-0.03,-3.35,1.54,8.05,0.0,0.0,0.0,-4.07,1.36,8.81
1738247947.727824,67135,0,0,,0.0,-0.18,0.14,0.92,0.31,-0.09,0.64,-0.05,-3.91,1.01,8.83,0.0,0.0,0.0,-4.13,1.35,8.78
1738247947.743913,67136,0,0,,0.0,-0.19,0.14,0.92,0.31,0.05,0.55,0.01,-4.31,1.91,8.7,0.0,0.0,0.0,-4.22,1.36,8.74
1738247947.7632055,67137,0,0,,0.0,-0.19,0.14,0.92,0.31,0.02,0.57,-0.01,-5.63,2.5,8.88,0.0,0.0,0.0,-4.32,1.36,8.69
1738247947.7777565,67138,0,0,,0.0,-0.19,0.14,0.92,0.31,0.03,0.44,-0.01,-5.24,0.8,9.52,0.0,0.0,0.0,-4.35,1.36,8.67
1738247947.7934809,67139,0,0,,0.0,-0.2,0.14,0.92,0.31,0.15,0.22,0.04,-4.71,1.1,9.52,0.0,0.0,0.0,-4.4,1.38,8.65
1738247947.8127823,67140,0,0,,0.0,-0.2,0.15,0.92,0.31,0.19,0.15,0.08,-4.82,1.8,8.86,0.0,0.0,0.0,-4.42,1.42,8.63
1738247947.8268857,67141,0,0,,0.0,-0.2,0.15,0.92,0.31,0.2,0.11,0.09,-5.57,1.65,8.73,0.0,0.0,0.0,-4.43,1.44,8.62
1738247947.8444407,67142,0,0,,0.0,-0.2,0.15,0.92,0.31,0.19,0.03,0.1,-4.63,1.93,8.71,0.0,0.0,0.0,-4.43,1.48,8.61
1738247947.8626556,67143,0,0,,0.0,-0.2,0.15,0.92,0.31,0.14,-0.01,0.07,-4.81,2.22,8.57,0.0,0.0,0.0,-4.43,1.5,8.61
1738247947.8777194,67144,0,0,,0.0,-0.2,0.15,0.92,0.31,0.09,-0.05,0.04,-4.14,2.16,8.69,0.0,0.0,0.0,-4.42,1.51,8.61
1738247947.8939981,67145,0,0,,0.0,-0.19,0.15,0.92,0.31,0.05,-0.03,0.03,-4.38,1.72,8.52,0.0,0.0,0.0,-4.42,1.52,8.61
1738247947.9133909,67146,0,0,,0.0,-0.19,0.15,0.92,0.31,0.02,-0.02,0.01,-4.67,1.52,8.56,0.0,0.0,0.0,-4.41,1.53,8.61
1738247947.9307537,67147,0,0,,0.0,-0.19,0.15,0.92,0.31,0.0,-0.01,0.0,-4.57,1.59,8.38,0.0,0.0,0.0,-4.41,1.53,8.62
1738247947.9506397,67148,0,0,,0.0,-0.19,0.15,0.92,0.31,-0.01,-0.01,0.0,-4.65,1.86,8.6,0.0,0.0,0.0,-4.41,1.53,8.62
1738247947.9650466,67149,0,0,,0.0,-0.19,0.15,0.92,0.31,-0.02,-0.0,-0.0,-4.58,1.46,8.38,0.0,0.0,0.0,-4.41,1.53,8.62
1738247947.9816341,67150,0,0,,0.0,-0.19,0.15,0.92,0.31,-0.01,0.0,-0.0,-4.92,1.33,8.31,0.0,0.0,0.0,-4.41,1.53,8.61
1738247948.0019023,67151,0,0,,0.0,-0.19,0.15,0.92,0.31,0.02,-0.04,0.01,-3.99,1.65,8.73,0.0,0.0,0.0,-4.41,1.53,8.62
1738247948.0164258,67152,0,0,,0.0,-0.19,0.15,0.92,0.31,0.04,-0.03,0.02,-4.54,1.25,8.53,0.0,0.0,0.0,-4.41,1.54,8.62
1738247948.0313168,67153,0,0,,0.0,-0.19,0.15,0.92,0.31,0.06,-0.02,0.03,-5.0,1.54,8.43,0.0,0.0,0.0,-4.41,1.55,8.61
1738247948.0499368,67154,0,0,,0.0,-0.19,0.15,0.92,0.31,0.09,-0.01,0.05,-4.59,1.32,8.54,0.0,0.0,0.0,-4.4,1.56,8.61
1738247948.0652587,67155,0,0,,0.0,-0.19,0.15,0.92,0.31,0.1,-0.01,0.06,-4.23,1.92,8.76,0.0,0.0,0.0,-4.4,1.58,8.61
1738247948.0795305,67156,0,0,,0.0,-0.19,0.15,0.92,0.31,0.11,-0.02,0.06,-3.86,2.1,8.78,0.0,0.0,0.0,-4.4,1.59,8.61
1738247948.0963213,67157,0,0,,0.0,-0.19,0.15,0.92,0.31,0.1,0.01,0.05,-4.94,1.41,8.27,0.0,0.0,0.0,-4.41,1.61,8.6
1738247948.1142128,67158,0,0,,0.0,-0.19,0.16,0.92,0.31,0.09,0.04,0.04,-3.7,1.99,8.84,0.0,0.0,0.0,-4.41,1.63,8.6
1738247948.127984,67159,0,0,,0.0,-0.19,0.16,0.92,0.31,0.09,0.04,0.03,-4.52,1.81,8.58,0.0,0.0,0.0,-4.42,1.64,8.59
1738247948.1442702,67160,0,0,,0.0,-0.19,0.16,0.92,0.31,0.07,0.06,0.02,-4.14,2.13,8.56,0.0,0.0,0.0,-4.43,1.66,8.58
1738247948.16311,67161,0,0,,0.0,-0.19,0.16,0.92,0.31,0.07,0.04,0.02,-4.1,1.91,8.77,0.0,0.0,0.0,-4.44,1.67,8.57
1738247948.1777458,67162,0,0,,0.0,-0.19,0.16,0.92,0.31,0.07,0.07,0.01,-4.82,1.62,8.41,0.0,0.0,0.0,-4.45,1.68,8.57
1738247948.193901,67163,0,0,,0.0,-0.19,0.16,0.92,0.31,0.08,0.07,0.01,-4.37,2.03,8.69,0.0,0.0,0.0,-4.46,1.7,8.56
1738247948.2133005,67164,0,0,,0.0,-0.19,0.16,0.92,0.31,0.08,0.09,0.01,-4.79,1.72,8.43,0.0,0.0,0.0,-4.48,1.71,8.55
1738247948.2279696,67165,0,0,,0.0,-0.2,0.16,0.92,0.31,0.1,0.11,0.0,-3.78,2.02,8.61,0.0,0.0,0.0,-4.48,1.72,8.54
1738247948.2445757,67166,0,0,,0.0,-0.2,0.16,0.92,0.31,0.11,0.13,0.01,-4.58,1.69,8.41,0.0,0.0,0.0,-4.51,1.74,8.53
1738247948.2633843,67167,0,0,,0.0,-0.2,0.17,0.92,0.31,0.13,0.16,-0.02,-5.29,1.92,8.19,0.0,0.0,0.0,-4.52,1.75,8.51
1738247948.2781034,67168,0,0,,0.0,-0.2,0.17,0.92,0.31,0.14,0.22,-0.05,-4.36,1.98,8.63,0.0,0.0,0.0,-4.56,1.77,8.49
1738247948.2943194,67169,0,0,,0.0,-0.2,0.17,0.91,0.31,0.14,0.27,-0.08,-5.07,1.98,8.39,0.0,0.0,0.0,-4.61,1.79,8.46
1738247948.3136177,67170,0,0,,0.0,-0.2,0.17,0.91,0.31,0.14,0.42,-0.15,-3.85,2.01,8.74,0.0,0.0,0.0,-4.64,1.8,8.44
1738247948.3277268,67171,0,0,,0.0,-0.21,0.17,0.91,0.31,0.15,0.6,-0.19,-4.79,1.59,8.58,0.0,0.0,0.0,-4.74,1.8,8.39
1738247948.344593,67172,0,0,,0.0,-0.21,0.17,0.91,0.31,0.15,0.7,-0.2,-4.43,1.93,8.73,0.0,0.0,0.0,-4.86,1.81,8.31
1738247948.3635395,67173,0,0,,0.0,-0.22,0.18,0.91,0.31,0.15,0.87,-0.21,-4.43,2.19,8.58,0.0,0.0,0.0,-4.94,1.81,8.27
1738247948.3781445,67174,0,0,,0.0,-0.23,0.18,0.9,0.31,0.1,1.13,-0.32,-3.96,2.54,6.89,0.0,0.0,0.0,-5.12,1.8,8.16
1738247948.3944814,67175,0,0,,0.0,-0.24,0.18,0.9,0.31,0.05,1.34,-0.4,-6.72,2.6,10.51,0.0,0.0,0.0,-5.35,1.76,8.02
1738247948.4133108,67176,0,0,,0.0,-0.26,0.19,0.89,0.32,-0.03,1.56,-0.45,-2.41,2.09,6.92,0.0,0.0,0.0,-5.48,1.74,7.94
1738247948.4280062,67177,0,0,,0.0,-0.27,0.19,0.89,0.32,-0.21,2.15,-0.65,-6.97,2.28,9.58,0.0,0.0,0.0,-5.8,1.65,7.72
1738247948.4447455,67178,0,0,,0.0,-0.29,0.19,0.88,0.32,-0.26,2.27,-0.66,-4.49,1.48,8.22,0.0,0.0,0.0,-6.17,1.53,7.46
1738247948.463659,67179,0,0,,0.0,-0.31,0.2,0.87,0.32,-0.34,2.75,-0.66,-7.04,1.83,8.35,0.0,0.0,0.0,-6.38,1.46,7.29
1738247948.4783456,67180,0,0,,0.0,-0.33,0.2,0.87,0.32,-0.25,3.02,-0.72,-6.87,1.62,7.11,0.0,0.0,0.0,-6.8,1.33,6.93
1738247948.4947944,67181,0,0,,0.0,-0.36,0.2,0.85,0.32,-0.26,3.33,-0.79,-6.68,2.28,7.25,0.0,0.0,0.0,-7.27,1.18,6.46
1738247948.5138364,67182,0,0,,0.0,-0.4,0.21,0.84,0.31,-0.48,3.86,-0.94,-5.47,2.67,7.81,0.0,0.0,0.0,-7.52,1.09,6.19
1738247948.5286367,67183,0,0,,0.0,-0.42,0.21,0.83,0.31,-0.94,4.8,-1.09,-10.22,0.89,11.07,0.0,0.0,0.0,-8.05,0.84,5.53
1738247948.5445104,67184,0,0,,0.0,-0.47,0.21,0.8,0.3,-0.83,5.62,-1.11,-12.38,1.38,14.38,0.0,0.0,0.0,-8.64,0.57,4.59
1738247948.5640688,67185,0,0,,0.0,-0.52,0.22,0.77,0.3,-0.79,6.28,-1.5,-11.66,2.19,13.6,0.0,0.0,0.0,-8.91,0.41,4.06
1738247948.5790663,67186,0,0,,0.0,-0.55,0.22,0.75,0.3,-0.97,6.37,-1.82,-11.0,3.1,16.13,0.0,0.0,0.0,-9.35,0.04,2.93
1738247948.5946229,67187,0,0,,0.0,-0.59,0.22,0.72,0.3,-1.14,6.09,-1.93,-10.3,1.4,22.41,0.0,0.0,0.0,-9.59,-0.39,1.99
1738247948.6148016,67188,0,0,,0.0,-0.6,0.21,0.7,0.31,0.01,1.62,-2.65,-10.66,5.61,22.29,0.0,0.0,0.0,-9.6,-0.63,1.84
1738247948.628568,67189,0,0,,0.0,-0.61,0.2,0.7,0.32,-0.36,0.24,-2.51,-3.92,9.51,12.03,0.0,0.0,0.0,-9.57,-1.13,1.79
1738247948.6450417,67190,0,0,,0.0,-0.61,0.18,0.69,0.33,-0.44,-0.03,-2.19,-3.43,5.78,10.78,0.0,0.0,0.0,-9.51,-1.49,1.82
1738247948.664045,67191,0,0,,0.0,-0.61,0.17,0.7,0.34,-0.16,-0.62,-1.29,-3.54,4.24,10.48,0.0,0.0,0.0,-9.48,-1.62,1.87
1738247948.678903,67192,0,0,,0.0,-0.6,0.17,0.7,0.35,0.14,-1.38,-0.94,-2.13,2.62,9.7,0.0,0.0,0.0,-9.4,-1.8,2.09
1738247948.6946301,67193,0,0,,0.0,-0.59,0.16,0.71,0.36,0.31,-1.78,-0.79,-1.42,1.63,8.09,0.0,0.0,0.0,-9.29,-1.91,2.46
1738247948.714206,67194,0,0,,0.0,-0.57,0.15,0.72,0.37,0.65,-2.48,-0.5,-1.46,1.49,7.81,0.0,0.0,0.0,-9.22,-1.94,2.7
1738247948.728965,67195,0,0,,0.0,-0.56,0.15,0.73,0.37,0.8,-3.06,-0.16,-2.5,1.15,7.32,0.0,0.0,0.0,-9.04,-1.94,3.25
1738247948.7448645,67196,0,0,,0.0,-0.53,0.14,0.74,0.38,0.84,-3.32,0.04,-4.17,0.59,7.69,0.0,0.0,0.0,-8.81,-1.86,3.87
1738247948.7644367,67197,0,0,,0.0,-0.5,0.14,0.76,0.39,0.87,-3.81,0.38,-4.75,0.76,7.8,0.0,0.0,0.0,-8.66,-1.8,4.21
1738247948.7788377,67198,0,0,,0.0,-0.48,0.13,0.77,0.39,0.88,-4.22,0.72,-5.76,-0.13,8.11,0.0,0.0,0.0,-8.32,-1.62,4.92
1738247948.795369,67199,0,0,,0.0,-0.44,0.13,0.8,0.39,0.94,-4.39,0.84,-7.87,-1.02,9.09,0.0,0.0,0.0,-7.89,-1.38,5.65
1738247948.8140423,67200,0,0,,0.0,-0.4,0.12,0.82,0.4,0.94,-4.71,0.83,-7.99,-0.28,8.69,0.0,0.0,0.0,-7.63,-1.27,6.01
1738247948.8294048,67201,0,0,,0.0,-0.38,0.12,0.83,0.4,0.83,-4.78,1.17,-8.59,2.42,6.91,0.0,0.0,0.0,-7.06,-1.01,6.71
1738247948.844924,67202,0,0,,0.0,-0.34,0.11,0.85,0.39,0.75,-4.67,1.51,-9.49,1.21,7.34,0.0,0.0,0.0,-6.47,-0.69,7.32
1738247948.8645136,67203,0,0,,0.0,-0.3,0.11,0.87,0.38,0.85,-4.21,2.13,-11.16,0.68,9.6,0.0,0.0,0.0,-6.18,-0.5,7.59
1738247948.8788373,67204,0,0,,0.0,-0.28,0.11,0.88,0.37,0.96,-4.35,2.33,-14.22,-1.38,11.57,0.0,0.0,0.0,-5.55,-0.09,8.08
1738247948.8948126,67205,0,0,,0.0,-0.23,0.11,0.9,0.36,0.89,-4.49,2.17,-14.83,-2.47,12.12,0.0,0.0,0.0,-4.81,0.25,8.53
1738247948.9145272,67206,0,0,,0.0,-0.18,0.1,0.91,0.35,0.8,-4.77,1.67,-14.41,-2.85,11.65,0.0,0.0,0.0,-4.41,0.39,8.74
1738247948.9293778,67207,0,0,,0.0,-0.16,0.1,0.92,0.35,0.84,-4.83,1.26,-13.71,-2.95,10.69,0.0,0.0,0.0,-3.56,0.63,9.11
1738247948.9448752,67208,0,0,,0.0,-0.12,0.09,0.93,0.35,0.92,-4.7,1.08,-12.97,-4.01,9.17,0.0,0.0,0.0,-2.72,0.86,9.38
1738247948.9644778,67209,0,0,,0.0,-0.08,0.09,0.93,0.35,1.0,-4.21,0.62,-12.53,-4.8,8.01,0.0,0.0,0.0,-2.33,0.97,9.47
1738247948.979005,67210,0,0,,0.0,-0.06,0.09,0.93,0.35,1.23,-3.32,0.19,-11.49,-3.87,5.05,0.0,0.0,0.0,-1.66,1.2,9.58
1738247948.9954057,67211,0,0,,0.0,-0.03,0.09,0.93,0.35,1.27,-2.74,0.03,-14.1,-1.04,3.59,0.0,0.0,0.0,-1.2,1.44,9.62
1738247949.0145986,67212,0,0,,0.0,-0.01,0.1,0.93,0.35,1.25,-1.85,-0.08,-14.59,-1.83,2.86,0.0,0.0,0.0,-1.03,1.55,9.62
1738247949.029074,67213,0,0,,0.0,-0.0,0.1,0.93,0.35,1.34,-1.16,0.14,-15.19,-2.66,-1.8,0.0,0.0,0.0,-0.78,1.81,9.6
1738247949.0452633,67214,0,0,,0.0,0.0,0.11,0.93,0.35,1.03,-0.68,0.24,-15.17,-2.43,-4.03,0.0,0.0,0.0,-0.7,1.96,9.58
1738247949.0643744,67215,0,0,,0.0,-0.01,0.11,0.93,0.35,0.06,0.56,0.34,-14.15,-2.76,-1.43,0.0,0.0,0.0,-0.74,1.97,9.57
1738247949.0790372,67216,0,0,,0.0,-0.01,0.11,0.93,0.35,-0.61,1.43,0.19,-11.57,-1.57,1.46,0.0,0.0,0.0,-0.96,1.88,9.57
1738247949.0952284,67217,0,0,,0.0,-0.03,0.11,0.93,0.34,-0.79,1.74,0.11,-8.98,2.05,4.43,0.0,0.0,0.0,-1.3,1.72,9.56
1738247949.1142454,67218,0,0,,0.0,-0.05,0.1,0.93,0.34,-1.13,2.08,0.16,-7.23,1.53,6.43,0.0,0.0,0.0,-1.49,1.62,9.55
1738247949.1288095,67219,0,0,,0.0,-0.06,0.1,0.93,0.34,-0.6,2.05,0.15,12.84,0.89,13.25,0.0,0.0,0.0,-1.87,1.47,9.51
1738247949.1453133,67220,0,0,,0.0,-0.1,0.11,0.93,0.34,-0.57,3.22,-0.68,-14.68,-6.77,8.45,0.0,0.0,0.0,-2.56,1.25,9.38
1738247949.1645217,67221,0,0,,0.0,-0.13,0.12,0.93,0.33,-0.4,3.77,-0.31,-11.77,-6.57,9.01,0.0,0.0,0.0,-2.9,1.21,9.28
1738247949.1792488,67222,0,0,,0.0,-0.14,0.12,0.93,0.33,0.31,2.57,0.75,-5.06,0.17,14.2,0.0,0.0,0.0,-3.37,1.34,9.11
1738247949.1955664,67223,0,0,,0.0,-0.16,0.13,0.92,0.33,-1.01,2.71,0.01,-11.57,-7.56,16.25,0.0,0.0,0.0,-3.75,1.23,8.97
1738247949.214446,67224,0,0,,0.0,-0.17,0.13,0.92,0.32,0.7,1.01,0.18,-4.96,-0.85,8.07,0.0,0.0,0.0,-3.84,1.29,8.92
1738247949.2289584,67225,0,0,,0.0,-0.17,0.14,0.92,0.32,0.18,0.64,0.11,-4.86,1.32,8.51,0.0,0.0,0.0,-3.97,1.36,8.86
1738247949.245085,67226,0,0,,0.0,-0.18,0.14,0.92,0.32,0.02,0.53,0.02,-4.42,0.23,9.37,0.0,0.0,0.0,-4.06,1.37,8.81
1738247949.2644718,67227,0,0,,0.0,-0.18,0.14,0.92,0.32,0.13,0.46,0.07,-3.6,2.24,9.1,0.0,0.0,0.0,-4.1,1.38,8.79
1738247949.2794318,67228,0,0,,0.0,-0.18,0.14,0.92,0.32,0.03,0.49,0.03,-4.67,2.96,8.08,0.0,0.0,0.0,-4.17,1.4,8.75
1738247949.29572,67229,0,0,,0.0,-0.19,0.14,0.92,0.32,-0.08,0.49,-0.04,-4.06,1.29,9.3,0.0,0.0,0.0,-4.25,1.39,8.72
1738247949.3147235,67230,0,0,,0.0,-0.19,0.14,0.92,0.32,0.01,0.44,-0.03,-5.31,1.42,8.88,0.0,0.0,0.0,-4.29,1.39,8.7
1738247949.3287344,67231,0,0,,0.0,-0.19,0.15,0.92,0.32,0.09,0.33,0.01,-5.55,1.37,8.77,0.0,0.0,0.0,-4.35,1.4,8.67
1738247949.3458393,67232,0,0,,0.0,-0.19,0.15,0.92,0.32,0.13,0.29,0.03,-5.48,1.85,8.58,0.0,0.0,0.0,-4.4,1.43,8.64
1738247949.364812,67233,0,0,,0.0,-0.19,0.15,0.92,0.32,0.1,0.2,0.03,-5.39,1.62,8.63,0.0,0.0,0.0,-4.41,1.44,8.63
1738247949.3791254,67234,0,0,,0.0,-0.2,0.15,0.92,0.32,0.09,0.08,0.04,-4.6,1.95,8.74,0.0,0.0,0.0,-4.43,1.46,8.62
1738247949.3958938,67235,0,0,,0.0,-0.2,0.15,0.92,0.32,0.07,0.07,0.04,-5.4,1.56,8.23,0.0,0.0,0.0,-4.44,1.47,8.61
1738247949.414949,67236,0,0,,0.0,-0.2,0.15,0.92,0.32,0.04,0.01,0.02,-4.2,1.84,8.93,0.0,0.0,0.0,-4.44,1.47,8.61
1738247949.4328315,67237,0,0,,0.0,-0.2,0.15,0.92,0.32,-0.0,0.01,0.0,-4.76,1.48,8.39,0.0,0.0,0.0,-4.44,1.48,8.61
1738247949.4513652,67238,0,0,,0.0,-0.2,0.15,0.92,0.32,-0.02,-0.0,-0.01,-4.79,1.65,8.43,0.0,0.0,0.0,-4.44,1.47,8.61
1738247949.4666417,67239,0,0,,0.0,-0.2,0.15,0.92,0.32,-0.06,-0.01,-0.02,-4.58,1.56,8.44,0.0,0.0,0.0,-4.44,1.47,8.61
1738247949.481441,67240,0,0,,0.0,-0.2,0.15,0.92,0.32,-0.06,0.0,-0.01,-5.17,1.24,8.24,0.0,0.0,0.0,-4.44,1.46,8.61
1738247949.4989164,67241,0,0,,0.0,-0.2,0.15,0.92,0.32,-0.03,-0.05,-0.0,-4.39,1.71,8.42,0.0,0.0,0.0,-4.43,1.45,8.62
1738247949.5160952,67242,0,0,,0.0,-0.2,0.15,0.92,0.32,-0.04,-0.02,-0.01,-4.92,1.53,8.29,0.0,0.0,0.0,-4.43,1.45,8.62
1738247949.5302858,67243,0,0,,0.0,-0.2,0.15,0.92,0.32,-0.0,-0.06,-0.0,-3.84,1.54,8.74,0.0,0.0,0.0,-4.43,1.45,8.62
1738247949.5464478,67244,0,0,,0.0,-0.19,0.15,0.92,0.32,0.0,-0.04,0.0,-4.64,1.8,8.44,0.0,0.0,0.0,-4.42,1.45,8.62
1738247949.5648541,67245,0,0,,0.0,-0.19,0.15,0.92,0.32,0.04,-0.02,0.01,-4.8,1.75,8.55,0.0,0.0,0.0,-4.42,1.45,8.62
1738247949.5798283,67246,0,0,,0.0,-0.19,0.15,0.92,0.32,0.07,-0.04,0.03,-4.68,1.41,8.54,0.0,0.0,0.0,-4.41,1.47,8.63
1738247949.5955262,67247,0,0,,0.0,-0.19,0.15,0.92,0.32,0.08,-0.03,0.03,-4.46,1.9,8.48,0.0,0.0,0.0,-4.41,1.49,8.62
1738247949.614877,67248,0,0,,0.0,-0.19,0.15,0.92,0.32,0.09,-0.02,0.04,-4.37,1.56,8.7,0.0,0.0,0.0,-4.41,1.5,8.62
1738247949.6292508,67249,0,0,,0.0,-0.19,0.15,0.92,0.32,0.1,0.01,0.06,-4.51,1.94,8.56,0.0,0.0,0.0,-4.41,1.52,8.62
1738247949.645889,67250,0,0,,0.0,-0.19,0.15,0.92,0.32,0.09,0.03,0.05,-4.53,1.77,8.54,0.0,0.0,0.0,-4.41,1.55,8.61
1738247949.664562,67251,0,0,,0.0,-0.19,0.15,0.92,0.32,0.09,0.03,0.04,-4.61,1.71,8.37,0.0,0.0,0.0,-4.41,1.56,8.61
1738247949.6790347,67252,0,0,,0.0,-0.19,0.15,0.92,0.32,0.08,0.04,0.03,-4.51,1.74,8.45,0.0,0.0,0.0,-4.42,1.57,8.6
1738247949.6959298,67253,0,0,,0.0,-0.19,0.16,0.92,0.32,0.08,0.04,0.03,-3.93,2.11,8.93,0.0,0.0,0.0,-4.42,1.59,8.6
1738247949.715236,67254,0,0,,0.0,-0.19,0.16,0.92,0.32,0.06,0.06,0.01,-4.7,1.87,8.38,0.0,0.0,0.0,-4.43,1.6,8.59
1738247949.7290876,67255,0,0,,0.0,-0.19,0.16,0.92,0.32,0.07,0.06,0.01,-4.23,1.72,8.7,0.0,0.0,0.0,-4.44,1.62,8.58
1738247949.7457716,67256,0,0,,0.0,-0.19,0.16,0.92,0.32,0.07,0.08,0.01,-4.68,1.67,8.56,0.0,0.0,0.0,-4.45,1.63,8.57
1738247949.7647188,67257,0,0,,0.0,-0.19,0.16,0.91,0.32,0.06,0.09,0.0,-4.29,1.8,8.54,0.0,0.0,0.0,-4.46,1.64,8.57
1738247949.7796736,67258,0,0,,0.0,-0.19,0.16,0.91,0.32,0.07,0.1,-0.0,-4.63,1.68,8.34,0.0,0.0,0.0,-4.48,1.65,8.56
1738247949.7956893,67259,0,0,,0.0,-0.2,0.16,0.91,0.32,0.07,0.13,-0.01,-5.13,1.63,8.39,0.0,0.0,0.0,-4.5,1.66,8.54
1738247949.8150082,67260,0,0,,0.0,-0.2,0.16,0.91,0.32,0.08,0.15,-0.03,-4.09,2.08,8.82,0.0,0.0,0.0,-4.52,1.67,8.54
1738247949.8293178,67261,0,0,,0.0,-0.2,0.16,0.91,0.32,0.06,0.22,-0.06,-4.96,1.76,8.41,0.0,0.0,0.0,-4.55,1.68,8.51
1738247949.846667,67262,0,0,,0.0,-0.2,0.16,0.91,0.32,0.06,0.26,-0.08,-3.92,1.87,8.59,0.0,0.0,0.0,-4.6,1.68,8.49
1738247949.8648891,67263,0,0,,0.0,-0.2,0.16,0.91,0.32,0.06,0.38,-0.13,-4.69,1.84,8.15,0.0,0.0,0.0,-4.64,1.68,8.47
1738247949.879618,67264,0,0,,0.0,-0.21,0.17,0.91,0.32,0.06,0.54,-0.17,-4.27,1.74,8.47,0.0,0.0,0.0,-4.72,1.68,8.42
1738247949.8963287,67265,0,0,,0.0,-0.21,0.17,0.91,0.32,0.07,0.62,-0.18,-4.25,1.86,8.9,0.0,0.0,0.0,-4.83,1.67,8.36
1738247949.914896,67266,0,0,,0.0,-0.22,0.17,0.91,0.32,0.06,0.84,-0.22,-5.17,1.83,8.47,0.0,0.0,0.0,-4.9,1.67,8.32
1738247949.9294288,67267,0,0,,0.0,-0.22,0.17,0.9,0.32,0.06,1.07,-0.25,-4.88,1.82,7.9,0.0,0.0,0.0,-5.06,1.66,8.23
1738247949.9466565,67268,0,0,,0.0,-0.24,0.18,0.9,0.32,0.04,1.24,-0.3,-3.72,2.23,7.05,0.0,0.0,0.0,-5.28,1.63,8.09
1738247949.9652078,67269,0,0,,0.0,-0.24,0.18,0.9,0.32,-0.01,1.53,-0.32,-5.29,2.28,8.39,0.0,0.0,0.0,-5.41,1.61,8.01
1738247949.980305,67270,0,0,,0.0,-0.26,0.18,0.89,0.32,-0.13,1.94,-0.5,-4.66,2.23,7.3,0.0,0.0,0.0,-5.7,1.55,7.82
1738247949.9967413,67271,0,0,,0.0,-0.28,0.19,0.89,0.32,-0.21,2.14,-0.57,-7.26,1.45,7.16,0.0,0.0,0.0,-6.04,1.45,7.58
1738247950.0156636,67272,0,0,,0.0,-0.3,0.19,0.88,0.32,-0.26,2.36,-0.62,-4.3,1.88,8.43,0.0,0.0,0.0,-6.22,1.39,7.44
1738247950.0302384,67273,0,0,,0.0,-0.32,0.19,0.87,0.32,-0.38,2.79,-0.63,-5.6,1.79,6.89,0.0,0.0,0.0,-6.61,1.26,7.12
1738247950.0473092,67274,0,0,,0.0,-0.35,0.19,0.86,0.32,-0.42,2.99,-0.74,-6.63,1.68,7.5,0.0,0.0,0.0,-7.04,1.11,6.72
1738247950.0663784,67275,0,0,,0.0,-0.38,0.2,0.85,0.32,-0.49,3.36,-0.9,-6.34,1.9,6.65,0.0,0.0,0.0,-7.27,1.01,6.49
1738247950.0811274,67276,0,0,,0.0,-0.4,0.2,0.84,0.32,-0.92,4.11,-1.16,-6.78,3.21,9.62,0.0,0.0,0.0,-7.76,0.76,5.94
1738247950.09762,67277,0,0,,0.0,-0.45,0.2,0.81,0.31,-1.24,4.71,-1.32,-7.55,1.56,11.16,0.0,0.0,0.0,-8.33,0.4,5.15
1738247950.1165032,67278,0,0,,0.0,-0.5,0.2,0.78,0.31,-1.42,6.21,-1.62,-12.86,0.66,12.51,0.0,0.0,0.0,-8.63,0.2,4.64
1738247950.1306293,67279,0,0,,0.0,-0.53,0.2,0.76,0.31,-1.18,6.46,-2.15,-13.08,3.38,14.91,0.0,0.0,0.0,-9.14,-0.25,3.53
1738247950.1488512,67280,0,0,,0.0,-0.58,0.2,0.73,0.3,-1.23,6.51,-2.17,-11.74,3.08,18.77,0.0,0.0,0.0,-9.49,-0.7,2.35
1738247950.1664267,67281,0,0,,0.0,-0.61,0.19,0.7,0.31,-0.45,4.24,-1.97,-10.76,1.07,20.4,0.0,0.0,0.0,-9.56,-0.89,1.96
1738247950.1806583,67282,0,0,,0.0,-0.61,0.19,0.7,0.31,0.02,0.9,-1.43,-1.87,9.5,12.14,0.0,0.0,0.0,-9.58,-1.18,1.68
1738247950.1984599,67283,0,0,,0.0,-0.62,0.18,0.69,0.32,-0.62,0.77,-1.12,-6.25,4.22,11.05,0.0,0.0,0.0,-9.58,-1.39,1.55
1738247950.216155,67284,0,0,,0.0,-0.62,0.18,0.69,0.32,-0.05,0.06,-0.71,-3.43,1.63,11.56,0.0,0.0,0.0,-9.57,-1.45,1.54
1738247950.2312756,67285,0,0,,0.0,-0.62,0.18,0.69,0.33,0.19,-0.67,-0.78,-2.79,0.92,10.3,0.0,0.0,0.0,-9.53,-1.59,1.63
1738247950.248536,67286,0,0,,0.0,-0.61,0.17,0.7,0.34,0.3,-1.1,-0.76,-2.4,1.09,10.03,0.0,0.0,0.0,-9.46,-1.71,1.89
1738247950.2666357,67287,0,0,,0.0,-0.6,0.16,0.71,0.35,0.47,-2.01,-0.58,-1.89,0.56,8.52,0.0,0.0,0.0,-9.41,-1.75,2.08
1738247950.2811987,67288,0,0,,0.0,-0.59,0.16,0.71,0.35,0.61,-2.78,-0.35,-2.08,-0.4,7.56,0.0,0.0,0.0,-9.28,-1.8,2.57
1738247950.2985053,67289,0,0,,0.0,-0.56,0.15,0.73,0.36,0.7,-3.09,-0.26,-2.66,-0.54,7.75,0.0,0.0,0.0,-9.09,-1.8,3.18
1738247950.3165765,67290,0,0,,0.0,-0.53,0.14,0.75,0.37,0.78,-3.8,-0.11,-4.03,-0.12,7.65,0.0,0.0,0.0,-8.97,-1.78,3.53
1738247950.3313286,67291,0,0,,0.0,-0.51,0.14,0.76,0.38,0.81,-4.33,0.08,-4.99,0.89,7.41,0.0,0.0,0.0,-8.65,-1.72,4.27
1738247950.348785,67292,0,0,,0.0,-0.47,0.13,0.78,0.38,0.82,-4.54,0.28,-5.32,0.51,6.59,0.0,0.0,0.0,-8.24,-1.58,5.05
1738247950.366941,67293,0,0,,0.0,-0.43,0.12,0.8,0.39,0.98,-4.71,0.67,-6.91,0.27,7.32,0.0,0.0,0.0,-8.01,-1.48,5.44
1738247950.3812082,67294,0,0,,0.0,-0.41,0.12,0.82,0.39,0.99,-4.77,1.14,-8.52,2.37,7.01,0.0,0.0,0.0,-7.5,-1.22,6.18
1738247950.3987017,67295,0,0,,0.0,-0.37,0.12,0.84,0.38,0.92,-4.7,1.51,-8.79,2.24,6.58,0.0,0.0,0.0,-6.95,-0.87,6.85
1738247950.4168887,67296,0,0,,0.0,-0.33,0.11,0.86,0.37,0.81,-4.36,2.12,-10.98,-2.03,8.2,0.0,0.0,0.0,-6.67,-0.67,7.15
1738247950.4313571,67297,0,0,,0.0,-0.31,0.11,0.87,0.37,0.94,-4.16,2.01,-13.85,-4.81,11.08,0.0,0.0,0.0,-6.09,-0.29,7.67
1738247950.4491453,67298,0,0,,0.0,-0.27,0.11,0.89,0.36,1.09,-4.27,1.7,-14.63,-4.72,11.09,0.0,0.0,0.0,-5.43,0.04,8.16
1738247950.4670722,67299,0,0,,0.0,-0.22,0.11,0.9,0.36,1.07,-4.44,1.06,-15.18,-2.53,10.25,0.0,0.0,0.0,-5.07,0.18,8.38
1738247950.4812481,67300,0,0,,0.0,-0.2,0.11,0.9,0.36,1.02,-4.38,0.83,-15.14,-1.27,9.25,0.0,0.0,0.0,-4.34,0.43,8.78
1738247950.5002062,67301,0,0,,0.0,-0.16,0.1,0.91,0.36,1.0,-4.22,0.81,-14.13,-0.76,7.18,0.0,0.0,0.0,-3.62,0.67,9.08
1738247950.5169263,67302,0,0,,0.0,-0.13,0.1,0.92,0.36,0.99,-3.57,0.84,-12.92,-0.52,4.83,0.0,0.0,0.0,-3.02,0.89,9.28
1738247950.5325334,67303,0,0,,0.0,-0.12,0.1,0.92,0.36,0.83,-2.6,0.8,-12.28,-0.37,4.32,0.0,0.0,0.0,-2.78,0.99,9.35
1738247950.5498736,67304,0,0,,0.0,-0.09,0.1,0.93,0.35,0.71,-2.16,0.77,-14.25,-0.98,6.72,0.0,0.0,0.0,-2.4,1.16,9.43
1738247950.5672355,67305,0,0,,0.0,-0.08,0.1,0.93,0.34,0.73,-1.68,0.94,-13.99,-0.94,6.64,0.0,0.0,0.0,-2.08,1.33,9.48
1738247950.5820572,67306,0,0,,0.0,-0.07,0.1,0.93,0.34,0.44,-1.29,0.9,-12.1,-3.85,2.59,0.0,0.0,0.0,-1.95,1.38,9.5
1738247950.6004004,67307,0,0,,0.0,-0.06,0.1,0.93,0.34,0.3,-0.95,0.74,-11.82,-4.14,1.16,0.0,0.0,0.0,-1.79,1.45,9.53
1738247950.6171863,67308,0,0,,0.0,-0.06,0.1,0.93,0.33,0.04,-0.21,0.3,-11.81,-3.71,0.27,0.0,0.0,0.0,-1.78,1.46,9.53
1738247950.6319714,67309,0,0,,0.0,-0.06,0.1,0.93,0.33,-0.08,0.57,-0.01,-11.38,-2.61,-0.5,0.0,0.0,0.0,-1.83,1.45,9.52
1738247950.650099,67310,0,0,,0.0,-0.08,0.1,0.93,0.33,-0.17,0.97,-0.08,-11.51,-1.44,-0.44,0.0,0.0,0.0,-2.05,1.4,9.48
1738247950.6673102,67311,0,0,,0.0,-0.09,0.1,0.93,0.33,-0.59,1.78,-0.08,-14.81,-3.21,2.77,0.0,0.0,0.0,-2.38,1.3,9.42
1738247950.682095,67312,0,0,,0.0,-0.1,0.11,0.93,0.33,-0.29,1.29,-0.08,5.91,-4.27,11.22,0.0,0.0,0.0,-2.5,1.27,9.39
1738247950.700714,67313,0,0,,0.0,-0.12,0.12,0.93,0.34,0.33,1.2,-0.48,22.47,2.0,22.52,0.0,0.0,0.0,-2.88,1.32,9.27
1738247950.7175727,67314,0,0,,0.0,-0.15,0.12,0.92,0.34,-0.08,3.45,-0.66,-12.56,3.58,7.17,0.0,0.0,0.0,-3.47,1.26,9.08
1738247950.732515,67315,0,0,,0.0,-0.16,0.13,0.92,0.34,-0.02,2.35,0.02,-11.44,-3.46,13.79,0.0,0.0,0.0,-3.68,1.26,9.0
1738247950.7506104,67316,0,0,,0.0,-0.17,0.13,0.92,0.33,0.16,1.45,0.06,-9.28,-1.59,18.04,0.0,0.0,0.0,-3.9,1.31,8.9
1738247950.7676573,67317,0,0,,0.0,-0.18,0.14,0.92,0.33,0.16,0.9,-0.01,-6.26,1.19,10.57,0.0,0.0,0.0,-4.04,1.31,8.83
1738247950.782337,67318,0,0,,0.0,-0.18,0.14,0.92,0.33,0.09,0.56,0.04,-5.26,0.29,8.17,0.0,0.0,0.0,-4.09,1.32,8.81
1738247950.8005831,67319,0,0,,0.0,-0.18,0.14,0.91,0.33,0.17,0.43,0.07,-4.06,2.06,9.32,0.0,0.0,0.0,-4.16,1.35,8.77
1738247950.818035,67320,0,0,,0.0,-0.18,0.14,0.91,0.33,0.11,0.46,0.07,-4.44,0.67,8.81,0.0,0.0,0.0,-4.24,1.38,8.73
1738247950.8322785,67321,0,0,,0.0,-0.19,0.15,0.91,0.33,0.15,0.36,0.08,-5.06,2.44,9.21,0.0,0.0,0.0,-4.27,1.4,8.71
1738247950.8507001,67322,0,0,,0.0,-0.19,0.15,0.91,0.33,0.1,0.3,0.05,-5.14,1.59,7.98,0.0,0.0,0.0,-4.32,1.41,8.68
1738247950.8681781,67323,0,0,,0.0,-0.19,0.15,0.91,0.33,0.06,0.26,0.01,-5.14,0.87,9.12,0.0,0.0,0.0,-4.35,1.43,8.66
1738247950.8827465,67324,0,0,,0.0,-0.19,0.15,0.91,0.33,0.18,0.08,0.07,-5.13,0.99,8.95,0.0,0.0,0.0,-4.36,1.45,8.66
1738247950.9009323,67325,0,0,,0.0,-0.19,0.15,0.91,0.33,0.24,0.04,0.11,-5.52,1.48,8.45,0.0,0.0,0.0,-4.36,1.5,8.65
1738247950.9178054,67326,0,0,,0.0,-0.19,0.15,0.91,0.33,0.27,-0.06,0.13,-4.25,1.9,9.06,0.0,0.0,0.0,-4.35,1.55,8.64
1738247950.9330378,67327,0,0,,0.0,-0.19,0.16,0.91,0.33,0.19,-0.05,0.11,-5.16,1.9,8.19,0.0,0.0,0.0,-4.34,1.57,8.64
1738247950.951436,67328,0,0,,0.0,-0.19,0.16,0.91,0.33,0.15,-0.08,0.08,-3.68,2.41,8.72,0.0,0.0,0.0,-4.32,1.6,8.65
1738247950.9684126,67329,0,0,,0.0,-0.18,0.16,0.91,0.33,0.07,-0.09,0.04,-4.19,2.01,8.59,0.0,0.0,0.0,-4.31,1.61,8.65
1738247950.9835887,67330,0,0,,0.0,-0.18,0.16,0.91,0.33,0.01,-0.03,0.02,-4.87,1.91,8.47,0.0,0.0,0.0,-4.31,1.61,8.65
1738247951.0019038,67331,0,0,,0.0,-0.18,0.16,0.91,0.33,0.02,-0.05,0.01,-4.82,1.79,8.44,0.0,0.0,0.0,-4.3,1.61,8.65
1738247951.0182052,67332,0,0,,0.0,-0.18,0.16,0.91,0.33,0.0,-0.0,0.0,-4.29,1.69,8.29,0.0,0.0,0.0,-4.3,1.61,8.65
1738247951.0358036,67333,0,0,,0.0,-0.18,0.16,0.91,0.33,-0.01,-0.0,-0.0,-4.3,1.75,8.46,0.0,0.0,0.0,-4.3,1.61,8.65
1738247951.053142,67334,0,0,,0.0,-0.19,0.16,0.91,0.33,-0.03,0.05,-0.02,-4.94,1.47,8.18,0.0,0.0,0.0,-4.32,1.61,8.65
1738247951.0700662,67335,0,0,,0.0,-0.19,0.16,0.91,0.33,-0.05,0.04,-0.02,-4.19,1.64,8.56,0.0,0.0,0.0,-4.34,1.61,8.64
1738247951.0844452,67336,0,0,,0.0,-0.19,0.16,0.91,0.33,-0.05,0.05,-0.02,-4.99,1.57,8.52,0.0,0.0,0.0,-4.34,1.6,8.64
1738247951.102934,67337,0,0,,0.0,-0.19,0.16,0.91,0.33,-0.03,0.04,-0.0,-4.73,1.58,8.46,0.0,0.0,0.0,-4.35,1.6,8.64
1738247951.1187975,67338,0,0,,0.0,-0.19,0.16,0.91,0.33,0.02,0.0,0.01,-4.57,1.51,8.51,0.0,0.0,0.0,-4.35,1.6,8.63
1738247951.134297,67339,0,0,,0.0,-0.19,0.16,0.91,0.33,0.05,0.02,0.03,-4.92,1.46,8.52,0.0,0.0,0.0,-4.36,1.61,8.63
1738247951.1525831,67340,0,0,,0.0,-0.19,0.16,0.91,0.33,0.06,0.01,0.04,-5.03,1.31,8.38,0.0,0.0,0.0,-4.37,1.62,8.62
1738247951.16893,67341,0,0,,0.0,-0.19,0.16,0.91,0.33,0.08,0.05,0.05,-4.59,1.96,8.5,0.0,0.0,0.0,-4.38,1.64,8.61
1738247951.1838555,67342,0,0,,0.0,-0.19,0.16,0.91,0.33,0.09,0.05,0.04,-3.86,1.91,8.94,0.0,0.0,0.0,-4.38,1.65,8.61
1738247951.2027194,67343,0,0,,0.0,-0.19,0.16,0.91,0.33,0.09,0.05,0.04,-4.54,2.15,8.58,0.0,0.0,0.0,-4.39,1.67,8.6
1738247951.2198417,67344,0,0,,0.0,-0.19,0.16,0.91,0.33,0.08,0.07,0.03,-4.96,1.31,8.52,0.0,0.0,0.0,-4.4,1.69,8.59
1738247951.234073,67345,0,0,,0.0,-0.19,0.16,0.91,0.33,0.09,0.06,0.01,-4.75,1.6,8.54,0.0,0.0,0.0,-4.41,1.69,8.59
1738247951.2524984,67346,0,0,,0.0,-0.19,0.16,0.91,0.33,0.08,0.07,0.01,-4.98,1.5,8.34,0.0,0.0,0.0,-4.43,1.71,8.57
1738247951.269345,67347,0,0,,0.0,-0.19,0.16,0.91,0.33,0.08,0.07,0.0,-4.04,2.03,8.77,0.0,0.0,0.0,-4.44,1.72,8.57
1738247951.2840989,67348,0,0,,0.0,-0.19,0.16,0.91,0.33,0.07,0.1,-0.02,-4.27,1.98,8.69,0.0,0.0,0.0,-4.45,1.73,8.56
1738247951.3026557,67349,0,0,,0.0,-0.19,0.17,0.91,0.33,0.07,0.12,-0.02,-3.94,2.05,8.81,0.0,0.0,0.0,-4.47,1.74,8.55
1738247951.3197527,67350,0,0,,0.0,-0.19,0.17,0.91,0.33,0.08,0.16,-0.04,-4.85,1.81,8.32,0.0,0.0,0.0,-4.5,1.75,8.53
1738247951.3341372,67351,0,0,,0.0,-0.19,0.17,0.91,0.33,0.07,0.23,-0.08,-5.43,1.55,8.29,0.0,0.0,0.0,-4.52,1.75,8.51
1738247951.353431,67352,0,0,,0.0,-0.2,0.17,0.91,0.33,0.07,0.26,-0.1,-4.57,1.9,8.34,0.0,0.0,0.0,-4.57,1.76,8.49
1738247951.369861,67353,0,0,,0.0,-0.2,0.17,0.91,0.33,0.07,0.4,-0.15,-4.3,1.92,8.62,0.0,0.0,0.0,-4.65,1.75,8.45
1738247951.3845603,67354,0,0,,0.0,-0.2,0.17,0.91,0.33,0.06,0.55,-0.19,-4.45,1.87,8.86,0.0,0.0,0.0,-4.7,1.75,8.42
1738247951.403218,67355,0,0,,0.0,-0.21,0.17,0.9,0.33,0.06,0.65,-0.2,-4.69,1.85,8.35,0.0,0.0,0.0,-4.82,1.74,8.35
1738247951.4198709,67356,0,0,,0.0,-0.22,0.18,0.9,0.33,0.07,0.85,-0.23,-5.06,1.72,8.52,0.0,0.0,0.0,-4.97,1.73,8.27
1738247951.4348965,67357,0,0,,0.0,-0.22,0.18,0.9,0.33,0.06,1.08,-0.24,-5.44,1.79,8.18,0.0,0.0,0.0,-5.06,1.72,8.21
1738247951.4535477,67358,0,0,,0.0,-0.23,0.18,0.9,0.33,0.06,1.19,-0.27,-5.22,1.78,7.47,0.0,0.0,0.0,-5.27,1.7,8.09
1738247951.469836,67359,0,0,,0.0,-0.25,0.19,0.89,0.33,-0.0,1.5,-0.35,-5.18,2.17,10.58,0.0,0.0,0.0,-5.53,1.66,7.92
1738247951.4855416,67360,0,0,,0.0,-0.26,0.19,0.89,0.33,-0.11,1.79,-0.41,-4.98,2.35,7.76,0.0,0.0,0.0,-5.67,1.63,7.82
1738247951.5038745,67361,0,0,,0.0,-0.28,0.19,0.88,0.33,-0.17,2.02,-0.52,-7.09,1.86,8.63,0.0,0.0,0.0,-6.01,1.53,7.58
1738247951.520206,67362,0,0,,0.0,-0.3,0.2,0.87,0.33,-0.33,2.52,-0.66,-6.67,1.29,7.04,0.0,0.0,0.0,-6.4,1.4,7.28
1738247951.535082,67363,0,0,,0.0,-0.31,0.2,0.87,0.33,-0.35,2.87,-0.73,-6.56,2.07,8.04,0.0,0.0,0.0,-6.61,1.33,7.11
1738247951.5539303,67364,0,0,,0.0,-0.34,0.2,0.86,0.33,-0.35,3.0,-0.77,-6.32,1.72,6.89,0.0,0.0,0.0,-7.05,1.18,6.7
1738247951.5708416,67365,0,0,,0.0,-0.38,0.21,0.84,0.33,-0.36,3.49,-0.92,-7.65,1.83,6.94,0.0,0.0,0.0,-7.52,0.99,6.2
1738247951.584886,67366,0,0,,0.0,-0.39,0.21,0.83,0.33,-0.65,4.14,-1.22,-6.93,3.18,10.75,0.0,0.0,0.0,-7.78,0.86,5.9
1738247951.6037574,67367,0,0,,0.0,-0.44,0.21,0.81,0.33,-0.96,4.76,-1.33,-9.41,2.81,11.54,0.0,0.0,0.0,-8.34,0.54,5.11
1738247951.6206942,67368,0,0,,0.0,-0.5,0.22,0.78,0.32,-1.17,6.17,-1.39,-10.34,0.29,10.41,0.0,0.0,0.0,-8.93,0.18,4.04
1738247951.6353507,67369,0,0,,0.0,-0.53,0.22,0.76,0.32,-0.77,7.15,-1.96,-11.4,2.78,12.4,0.0,0.0,0.0,-9.19,-0.01,3.41
1738247951.6539617,67370,0,0,,0.0,-0.59,0.23,0.71,0.31,-0.72,7.35,-2.08,-14.25,2.46,20.89,0.0,0.0,0.0,-9.57,-0.43,2.06
1738247951.6708558,67371,0,0,,0.0,-0.63,0.23,0.67,0.31,-0.76,7.11,-2.15,-19.96,-3.23,27.12,0.0,0.0,0.0,-9.72,-0.81,0.99
1738247951.685759,67372,0,0,,0.0,-0.64,0.23,0.67,0.32,0.44,1.19,-1.76,-17.85,8.56,22.94,0.0,0.0,0.0,-9.71,-0.97,0.88
1738247951.7044652,67373,0,0,,0.0,-0.64,0.21,0.67,0.32,0.17,-0.6,-1.63,-4.24,6.69,7.85,0.0,0.0,0.0,-9.67,-1.26,0.98
1738247951.7210793,67374,0,0,,0.0,-0.64,0.2,0.67,0.33,-1.24,-0.41,-0.99,-3.68,0.88,7.71,0.0,0.0,0.0,-9.64,-1.41,1.05
1738247951.735879,67375,0,0,,0.0,-0.63,0.2,0.67,0.33,-0.06,-0.81,-0.29,-4.4,2.74,10.62,0.0,0.0,0.0,-9.63,-1.44,1.12
1738247951.7542436,67376,0,0,,0.0,-0.63,0.19,0.68,0.33,-0.09,-1.25,-0.28,-3.87,0.57,10.41,0.0,0.0,0.0,-9.58,-1.49,1.41
1738247951.771182,67377,0,0,,0.0,-0.61,0.18,0.69,0.34,0.14,-2.4,-0.19,-3.03,-0.44,8.4,0.0,0.0,0.0,-9.49,-1.51,1.9
1738247951.7860003,67378,0,0,,0.0,-0.6,0.18,0.7,0.34,0.38,-3.23,-0.22,-3.09,-1.07,6.82,0.0,0.0,0.0,-9.43,-1.53,2.2
1738247951.8044553,67379,0,0,,0.0,-0.57,0.17,0.72,0.35,0.44,-3.52,-0.27,-4.07,-0.67,7.08,0.0,0.0,0.0,-9.24,-1.56,2.88
1738247951.8214948,67380,0,0,,0.0,-0.54,0.16,0.74,0.37,0.61,-4.02,-0.31,-4.48,-0.01,7.04,0.0,0.0,0.0,-8.97,-1.56,3.63
1738247951.8363662,67381,0,0,,0.0,-0.52,0.15,0.75,0.37,0.68,-4.52,-0.11,-4.5,1.43,6.05,0.0,0.0,0.0,-8.8,-1.55,4.03
1738247951.8546755,67382,0,0,,0.0,-0.48,0.14,0.78,0.38,0.68,-4.64,0.1,-6.2,1.4,6.48,0.0,0.0,0.0,-8.4,-1.45,4.83
1738247951.8709223,67383,0,0,,0.0,-0.44,0.13,0.8,0.38,0.74,-4.81,0.58,-6.79,1.68,6.71,0.0,0.0,0.0,-7.93,-1.26,5.62
1738247951.8860865,67384,0,0,,0.0,-0.42,0.13,0.81,0.38,0.71,-4.89,1.2,-8.46,3.45,6.89,0.0,0.0,0.0,-7.67,-1.13,6.0
1738247951.9048157,67385,0,0,,0.0,-0.38,0.12,0.84,0.38,0.66,-4.84,1.63,-9.85,2.14,7.48,0.0,0.0,0.0,-7.11,-0.79,6.69
1738247951.921216,67386,0,0,,0.0,-0.34,0.12,0.86,0.36,0.52,-4.65,2.35,-10.41,0.12,7.82,0.0,0.0,0.0,-6.52,-0.41,7.31
1738247951.9361646,67387,0,0,,0.0,-0.32,0.12,0.87,0.36,0.58,-4.44,2.23,-12.55,-3.46,10.42,0.0,0.0,0.0,-6.2,-0.23,7.58
1738247951.9544835,67388,0,0,,0.0,-0.27,0.11,0.89,0.35,0.75,-4.4,1.99,-14.01,-3.64,10.94,0.0,0.0,0.0,-5.54,0.1,8.08
1738247951.9716492,67389,0,0,,0.0,-0.23,0.11,0.9,0.35,1.11,-4.31,1.51,-14.77,-3.0,10.54,0.0,0.0,0.0,-4.85,0.43,8.5
1738247951.9861495,67390,0,0,,0.0,-0.21,0.11,0.91,0.34,1.17,-4.06,1.12,-17.09,-1.42,11.25,0.0,0.0,0.0,-4.51,0.58,8.68
1738247952.0047355,67391,0,0,,0.0,-0.17,0.11,0.92,0.34,1.11,-4.07,0.98,-15.65,-3.52,8.02,0.0,0.0,0.0,-3.8,0.84,8.99
1738247952.0217679,67392,0,0,,0.0,-0.13,0.11,0.92,0.34,1.15,-3.88,0.6,-14.4,-4.78,6.53,0.0,0.0,0.0,-3.13,1.09,9.22
1738247952.0362823,67393,0,0,,0.0,-0.12,0.11,0.92,0.35,1.37,-3.21,-0.01,-12.35,-3.04,4.44,0.0,0.0,0.0,-2.85,1.21,9.3
1738247952.0553868,67394,0,0,,0.0,-0.09,0.11,0.92,0.35,1.33,-2.77,-0.22,-11.63,-0.56,2.67,0.0,0.0,0.0,-2.39,1.43,9.4
1738247952.0715153,67395,0,0,,0.0,-0.07,0.12,0.92,0.36,1.12,-1.86,-0.19,-11.08,-0.19,1.63,0.0,0.0,0.0,-2.1,1.62,9.43
1738247952.0861702,67396,0,0,,0.0,-0.07,0.12,0.92,0.36,1.07,-0.82,0.23,-15.97,-1.08,3.84,0.0,0.0,0.0,-2.02,1.73,9.43
1738247952.1047163,67397,0,0,,0.0,-0.06,0.13,0.93,0.35,1.08,-0.67,0.45,-14.73,-2.35,0.36,0.0,0.0,0.0,-1.89,1.92,9.42
1738247952.1211998,67398,0,0,,0.0,-0.05,0.13,0.93,0.35,0.48,-0.42,0.49,-13.76,-2.65,-2.48,0.0,0.0,0.0,-1.82,1.99,9.42
1738247952.1361907,67399,0,0,,0.0,-0.05,0.13,0.93,0.35,-0.18,0.36,0.44,-13.15,-2.15,-1.91,0.0,0.0,0.0,-1.85,1.99,9.42
1738247952.155101,67400,0,0,,0.0,-0.06,0.13,0.93,0.34,-0.47,0.76,0.42,-11.76,-0.98,1.48,0.0,0.0,0.0,-2.0,1.9,9.4
1738247952.1714883,67401,0,0,,0.0,-0.08,0.12,0.93,0.34,-0.87,1.28,0.43,-10.22,-1.36,3.43,0.0,0.0,0.0,-2.22,1.76,9.38
1738247952.186778,67402,0,0,,0.0,-0.08,0.12,0.93,0.33,-0.66,1.14,0.3,-3.04,0.08,8.63,0.0,0.0,0.0,-2.32,1.71,9.37
1738247952.2051666,67403,0,0,,0.0,-0.1,0.13,0.93,0.34,-0.16,1.26,-0.24,-9.74,8.19,15.08,0.0,0.0,0.0,-2.67,1.62,9.29
1738247952.221456,67404,0,0,,0.0,-0.13,0.13,0.92,0.33,-1.29,2.86,-0.51,-10.46,-9.66,2.53,0.0,0.0,0.0,-3.16,1.47,9.16
1738247952.2366693,67405,0,0,,0.0,-0.14,0.13,0.92,0.33,0.41,2.12,0.6,-5.88,1.04,10.43,0.0,0.0,0.0,-3.33,1.53,9.09
1738247952.2551653,67406,0,0,,0.0,-0.16,0.14,0.92,0.33,-0.29,2.04,0.21,-11.07,-7.76,15.98,0.0,0.0,0.0,-3.68,1.44,8.97
1738247952.271823,67407,0,0,,0.0,-0.16,0.14,0.92,0.33,0.12,1.11,-0.08,-6.35,-2.47,11.01,0.0,0.0,0.0,-3.85,1.48,8.89
1738247952.286871,67408,0,0,,0.0,-0.17,0.14,0.92,0.33,0.27,0.87,0.06,-6.92,4.1,9.22,0.0,0.0,0.0,-3.93,1.51,8.85
1738247952.3048933,67409,0,0,,0.0,-0.17,0.15,0.92,0.33,0.13,0.68,0.03,-4.64,1.38,9.17,0.0,0.0,0.0,-4.05,1.51,8.8
1738247952.321761,67410,0,0,,0.0,-0.18,0.15,0.92,0.33,-0.04,0.69,-0.06,-4.54,1.37,8.48,0.0,0.0,0.0,-4.16,1.5,8.75
1738247952.3370833,67411,0,0,,0.0,-0.18,0.15,0.92,0.33,-0.06,0.53,-0.09,-3.66,2.75,9.1,0.0,0.0,0.0,-4.2,1.49,8.73
1738247952.3548155,67412,0,0,,0.0,-0.19,0.15,0.91,0.33,-0.13,0.59,-0.11,-5.48,0.62,9.41,0.0,0.0,0.0,-4.3,1.46,8.68
1738247952.3717437,67413,0,0,,0.0,-0.19,0.15,0.91,0.33,-0.12,0.44,-0.12,-5.37,1.58,9.54,0.0,0.0,0.0,-4.37,1.44,8.65
1738247952.387347,67414,0,0,,0.0,-0.19,0.15,0.91,0.33,0.03,0.28,-0.01,-5.41,1.48,8.89,0.0,0.0,0.0,-4.4,1.44,8.64
1738247952.4051406,67415,0,0,,0.0,-0.19,0.15,0.91,0.32,0.09,0.24,0.02,-5.67,1.31,8.94,0.0,0.0,0.0,-4.43,1.46,8.62
1738247952.4216778,67416,0,0,,0.0,-0.19,0.15,0.91,0.32,0.14,0.06,0.06,-4.6,1.84,9.2,0.0,0.0,0.0,-4.44,1.48,8.61
1738247952.436689,67417,0,0,,0.0,-0.19,0.15,0.91,0.32,0.13,0.0,0.07,-5.18,1.67,8.55,0.0,0.0,0.0,-4.44,1.5,8.61
1738247952.455075,67418,0,0,,0.0,-0.19,0.15,0.91,0.32,0.14,-0.03,0.07,-4.66,1.48,8.63,0.0,0.0,0.0,-4.43,1.53,8.61
1738247952.4722445,67419,0,0,,0.0,-0.19,0.15,0.91,0.32,0.12,-0.06,0.06,-4.63,1.74,8.3,0.0,0.0,0.0,-4.41,1.55,8.61
1738247952.4869869,67420,0,0,,0.0,-0.19,0.16,0.91,0.32,0.1,-0.09,0.05,-3.74,2.07,8.76,0.0,0.0,0.0,-4.41,1.56,8.61
1738247952.5050535,67421,0,0,,0.0,-0.19,0.16,0.91,0.32,0.08,-0.07,0.04,-4.72,1.74,8.26,0.0,0.0,0.0,-4.4,1.58,8.61
1738247952.5224261,67422,0,0,,0.0,-0.19,0.16,0.91,0.32,0.05,-0.02,0.03,-4.43,1.78,8.51,0.0,0.0,0.0,-4.39,1.59,8.62
1738247952.541632,67423,0,0,,0.0,-0.19,0.16,0.91,0.32,0.02,-0.01,0.02,-4.16,2.02,8.66,0.0,0.0,0.0,-4.39,1.59,8.62
1738247952.56017,67424,0,0,,0.0,-0.19,0.16,0.91,0.32,-0.0,0.01,0.01,-5.28,1.64,8.39,0.0,0.0,0.0,-4.39,1.59,8.61
1738247952.5744853,67425,0,0,,0.0,-0.19,0.16,0.91,0.32,0.02,-0.03,0.02,-4.46,1.76,8.56,0.0,0.0,0.0,-4.39,1.59,8.62
1738247952.5931208,67426,0,0,,0.0,-0.19,0.16,0.91,0.32,0.03,-0.02,0.02,-4.74,1.52,8.41,0.0,0.0,0.0,-4.39,1.6,8.62
1738247952.6133504,67427,0,0,,0.0,-0.19,0.16,0.91,0.32,0.05,-0.03,0.03,-4.1,1.73,8.7,0.0,0.0,0.0,-4.38,1.61,8.62
1738247952.6274486,67428,0,0,,0.0,-0.19,0.16,0.91,0.32,0.06,-0.01,0.03,-4.66,1.59,8.55,0.0,0.0,0.0,-4.38,1.62,8.61
1738247952.6450212,67429,0,0,,0.0,-0.19,0.16,0.91,0.32,0.07,0.0,0.04,-4.76,2.01,8.55,0.0,0.0,0.0,-4.38,1.64,8.61
1738247952.6649132,67430,0,0,,0.0,-0.19,0.16,0.91,0.32,0.07,0.0,0.04,-4.38,1.8,8.49,0.0,0.0,0.0,-4.38,1.65,8.61
1738247952.679231,67431,0,0,,0.0,-0.19,0.16,0.91,0.32,0.07,0.03,0.03,-4.79,2.04,8.44,0.0,0.0,0.0,-4.39,1.66,8.6
1738247952.696044,67432,0,0,,0.0,-0.19,0.16,0.91,0.32,0.06,0.04,0.03,-5.07,1.9,8.36,0.0,0.0,0.0,-4.4,1.68,8.59
1738247952.7155511,67433,0,0,,0.0,-0.19,0.16,0.91,0.32,0.07,0.05,0.02,-4.71,1.64,8.49,0.0,0.0,0.0,-4.41,1.69,8.58
1738247952.7305233,67434,0,0,,0.0,-0.19,0.16,0.91,0.32,0.06,0.02,0.02,-3.93,1.95,8.77,0.0,0.0,0.0,-4.41,1.7,8.58
1738247952.7461503,67435,0,0,,0.0,-0.19,0.16,0.91,0.32,0.05,0.04,0.01,-5.25,1.5,8.18,0.0,0.0,0.0,-4.42,1.72,8.57
1738247952.765482,67436,0,0,,0.0,-0.19,0.16,0.91,0.32,0.05,0.04,0.01,-4.88,1.93,8.45,0.0,0.0,0.0,-4.44,1.73,8.56
1738247952.7803624,67437,0,0,,0.0,-0.19,0.16,0.91,0.32,0.05,0.04,0.01,-4.33,2.12,8.49,0.0,0.0,0.0,-4.44,1.74,8.56
1738247952.7965167,67438,0,0,,0.0,-0.19,0.16,0.91,0.32,0.06,0.06,-0.01,-4.51,1.94,8.44,0.0,0.0,0.0,-4.45,1.74,8.56
1738247952.8154736,67439,0,0,,0.0,-0.19,0.17,0.91,0.32,0.06,0.07,-0.01,-4.48,1.86,8.59,0.0,0.0,0.0,-4.46,1.75,8.55
1738247952.8300977,67440,0,0,,0.0,-0.19,0.17,0.91,0.32,0.06,0.11,-0.03,-4.82,1.86,8.37,0.0,0.0,0.0,-4.47,1.76,8.54
1738247952.846574,67441,0,0,,0.0,-0.19,0.17,0.91,0.32,0.06,0.15,-0.06,-4.26,2.15,8.68,0.0,0.0,0.0,-4.5,1.77,8.53
1738247952.8653412,67442,0,0,,0.0,-0.19,0.17,0.91,0.32,0.05,0.2,-0.09,-4.85,1.96,8.35,0.0,0.0,0.0,-4.54,1.77,8.5
1738247952.8802865,67443,0,0,,0.0,-0.2,0.17,0.91,0.32,0.04,0.31,-0.14,-4.49,1.78,8.33,0.0,0.0,0.0,-4.57,1.77,8.49
1738247952.8963814,67444,0,0,,0.0,-0.2,0.17,0.91,0.32,0.03,0.46,-0.17,-4.52,2.1,8.29,0.0,0.0,0.0,-4.64,1.76,8.45
1738247952.9159842,67445,0,0,,0.0,-0.21,0.17,0.91,0.32,0.02,0.54,-0.19,-4.96,1.57,8.52,0.0,0.0,0.0,-4.74,1.75,8.4
1738247952.930729,67446,0,0,,0.0,-0.21,0.17,0.91,0.33,0.03,0.72,-0.2,-4.89,1.66,8.53,0.0,0.0,0.0,-4.8,1.74,8.36
1738247952.9466944,67447,0,0,,0.0,-0.22,0.18,0.9,0.33,0.0,1.05,-0.28,-3.54,2.0,7.59,0.0,0.0,0.0,-4.97,1.72,8.27
1738247952.96632,67448,0,0,,0.0,-0.23,0.18,0.9,0.33,-0.04,1.3,-0.32,-5.82,2.22,10.86,0.0,0.0,0.0,-5.19,1.68,8.14
1738247952.9809225,67449,0,0,,0.0,-0.24,0.18,0.9,0.33,-0.1,1.58,-0.38,-3.27,1.98,7.22,0.0,0.0,0.0,-5.32,1.65,8.06
1738247952.997109,67450,0,0,,0.0,-0.26,0.18,0.89,0.33,-0.28,2.17,-0.59,-7.0,1.51,8.61,0.0,0.0,0.0,-5.66,1.55,7.85
1738247953.0156875,67451,0,0,,0.0,-0.28,0.19,0.88,0.33,-0.3,2.31,-0.64,-3.42,1.63,7.73,0.0,0.0,0.0,-6.04,1.43,7.58
1738247953.0309985,67452,0,0,,0.0,-0.29,0.19,0.88,0.33,-0.45,2.97,-0.79,-6.06,2.48,7.88,0.0,0.0,0.0,-6.27,1.35,7.41
1738247953.047411,67453,0,0,,0.0,-0.33,0.19,0.87,0.33,-0.65,3.53,-1.05,-6.84,2.27,7.38,0.0,0.0,0.0,-6.76,1.14,7.0
1738247953.0661185,67454,0,0,,0.0,-0.36,0.19,0.85,0.33,-0.75,3.87,-1.19,-6.4,2.38,7.68,0.0,0.0,0.0,-7.32,0.87,6.46
1738247953.0807152,67455,0,0,,0.0,-0.39,0.19,0.84,0.33,-0.98,4.94,-1.51,-6.56,2.25,11.47,0.0,0.0,0.0,-7.63,0.7,6.11
1738247953.097782,67456,0,0,,0.0,-0.44,0.2,0.81,0.33,-0.71,6.44,-1.61,-10.87,0.73,12.56,0.0,0.0,0.0,-8.32,0.36,5.17
1738247953.1161077,67457,0,0,,0.0,-0.5,0.21,0.77,0.32,-0.67,6.85,-1.83,-12.85,2.2,14.68,0.0,0.0,0.0,-8.94,-0.02,4.01
1738247953.1307342,67458,0,0,,0.0,-0.53,0.21,0.75,0.32,-0.95,7.0,-2.22,-11.96,5.07,17.85,0.0,0.0,0.0,-9.19,-0.25,3.4
1738247953.1469066,67459,0,0,,0.0,-0.58,0.21,0.72,0.32,-0.83,5.17,-1.79,-18.43,1.24,19.46,0.0,0.0,0.0,-9.51,-0.67,2.29
1738247953.1657355,67460,0,0,,0.0,-0.6,0.21,0.7,0.32,-0.12,2.55,-1.25,-5.73,9.79,15.9,0.0,0.0,0.0,-9.57,-0.85,1.92
1738247953.180552,67461,0,0,,0.0,-0.6,0.21,0.7,0.32,-0.41,1.55,-0.35,-6.0,2.39,11.4,0.0,0.0,0.0,-9.6,-0.89,1.77
1738247953.1972733,67462,0,0,,0.0,-0.61,0.21,0.69,0.32,0.02,0.78,-0.25,-3.91,0.01,12.68,0.0,0.0,0.0,-9.63,-0.94,1.57
1738247953.2159703,67463,0,0,,0.0,-0.61,0.21,0.69,0.32,-0.02,0.22,-0.53,-3.11,-0.86,11.59,0.0,0.0,0.0,-9.61,-1.06,1.58
1738247953.2306008,67464,0,0,,0.0,-0.61,0.2,0.69,0.33,0.17,-0.8,-0.96,-1.89,0.61,10.46,0.0,0.0,0.0,-9.59,-1.15,1.65
1738247953.2469907,67465,0,0,,0.0,-0.6,0.2,0.7,0.34,0.23,-1.29,-0.97,-0.9,1.93,8.29,0.0,0.0,0.0,-9.52,-1.31,1.94
1738247953.2660518,67466,0,0,,0.0,-0.59,0.19,0.71,0.35,0.26,-2.08,-0.65,-1.21,1.94,8.05,0.0,0.0,0.0,-9.41,-1.39,2.36
1738247953.2807758,67467,0,0,,0.0,-0.58,0.18,0.71,0.35,0.36,-2.77,-0.22,-2.32,1.72,7.78,0.0,0.0,0.0,-9.34,-1.41,2.62
1738247953.2973423,67468,0,0,,0.0,-0.55,0.17,0.73,0.36,0.36,-3.09,-0.09,-3.43,1.69,7.8,0.0,0.0,0.0,-9.15,-1.39,3.21
1738247953.316367,67469,0,0,,0.0,-0.52,0.16,0.75,0.37,0.45,-3.75,0.08,-4.08,2.03,7.59,0.0,0.0,0.0,-8.89,-1.34,3.9
1738247953.3309438,67470,0,0,,0.0,-0.51,0.16,0.76,0.37,0.54,-4.29,0.36,-5.19,1.48,6.99,0.0,0.0,0.0,-8.72,-1.29,4.28
1738247953.346752,67471,0,0,,0.0,-0.47,0.15,0.78,0.38,0.64,-4.47,0.56,-6.38,0.77,7.17,0.0,0.0,0.0,-8.33,-1.12,5.04
1738247953.3662338,67472,0,0,,0.0,-0.43,0.14,0.81,0.38,0.76,-4.68,0.87,-7.63,1.88,7.52,0.0,0.0,0.0,-7.85,-0.89,5.79
1738247953.3806484,67473,0,0,,0.0,-0.41,0.14,0.82,0.38,0.64,-4.73,1.38,-8.33,1.92,6.5,0.0,0.0,0.0,-7.59,-0.75,6.15
1738247953.397512,67474,0,0,,0.0,-0.37,0.14,0.84,0.37,0.57,-4.62,1.65,-10.9,-0.25,9.38,0.0,0.0,0.0,-7.04,-0.43,6.8
1738247953.4164872,67475,0,0,,0.0,-0.33,0.13,0.86,0.36,0.71,-4.32,2.03,-13.01,-0.19,11.35,0.0,0.0,0.0,-6.45,-0.06,7.37
1738247953.4312773,67476,0,0,,0.0,-0.3,0.13,0.87,0.36,0.56,-4.57,1.98,-13.91,-1.43,10.14,0.0,0.0,0.0,-6.12,0.09,7.65
1738247953.4470084,67477,0,0,,0.0,-0.26,0.12,0.89,0.35,0.43,-4.64,1.81,-12.78,-1.81,7.56,0.0,0.0,0.0,-5.4,0.35,8.17
1738247953.4663594,67478,0,0,,0.0,-0.22,0.12,0.91,0.34,0.5,-4.33,1.55,-12.34,-2.6,7.06,0.0,0.0,0.0,-4.72,0.6,8.56
1738247953.4809504,67479,0,0,,0.0,-0.2,0.12,0.91,0.34,0.87,-3.56,1.49,-14.94,-0.68,8.56,0.0,0.0,0.0,-4.42,0.74,8.72
1738247953.497286,67480,0,0,,0.0,-0.17,0.12,0.92,0.33,0.86,-3.29,1.46,-17.18,-2.8,10.79,0.0,0.0,0.0,-3.85,1.02,8.95
1738247953.5165312,67481,0,0,,0.0,-0.14,0.12,0.93,0.33,1.22,-2.99,1.29,-17.93,-2.94,10.14,0.0,0.0,0.0,-3.29,1.31,9.14
1738247953.53151,67482,0,0,,0.0,-0.12,0.12,0.93,0.33,0.98,-3.12,0.68,-16.75,-3.86,7.23,0.0,0.0,0.0,-3.0,1.42,9.22
1738247953.5480106,67483,0,0,,0.0,-0.09,0.12,0.93,0.33,0.83,-3.06,0.37,-14.17,-2.6,1.91,0.0,0.0,0.0,-2.46,1.57,9.35
1738247953.5660586,67484,0,0,,0.0,-0.07,0.12,0.93,0.33,0.62,-2.64,-0.14,-13.2,-2.8,0.12,0.0,0.0,0.0,-2.03,1.68,9.44
1738247953.581316,67485,0,0,,0.0,-0.06,0.12,0.93,0.34,0.71,-1.67,-0.44,-12.17,-2.24,-2.08,0.0,0.0,0.0,-1.88,1.73,9.46
1738247953.5975916,67486,0,0,,0.0,-0.05,0.12,0.93,0.34,0.7,-1.09,-0.49,-12.61,-1.44,-1.03,0.0,0.0,0.0,-1.75,1.83,9.47
1738247953.616878,67487,0,0,,0.0,-0.05,0.12,0.93,0.35,0.32,0.02,-0.36,-13.23,-1.0,-0.16,0.0,0.0,0.0,-1.8,1.85,9.45
1738247953.6313126,67488,0,0,,0.0,-0.06,0.12,0.93,0.35,-0.24,0.61,-0.16,-11.74,-0.46,1.7,0.0,0.0,0.0,-1.86,1.83,9.45
1738247953.6471448,67489,0,0,,0.0,-0.07,0.12,0.93,0.34,-0.43,0.83,-0.08,-10.51,0.4,2.53,0.0,0.0,0.0,-2.03,1.74,9.43
1738247953.6670694,67490,0,0,,0.0,-0.08,0.12,0.93,0.34,-0.64,1.23,0.07,-9.67,1.92,4.65,0.0,0.0,0.0,-2.26,1.61,9.4
1738247953.6809306,67491,0,0,,0.0,-0.09,0.12,0.93,0.34,-0.84,1.31,0.27,-7.13,0.8,7.91,0.0,0.0,0.0,-2.37,1.54,9.38
1738247953.697384,67492,0,0,,0.0,-0.1,0.12,0.93,0.34,-0.65,1.1,0.33,12.06,9.61,31.18,0.0,0.0,0.0,-2.6,1.45,9.34
1738247953.7164052,67493,0,0,,0.0,-0.13,0.12,0.93,0.34,-0.67,3.1,-0.43,-14.83,-0.36,11.01,0.0,0.0,0.0,-2.89,1.38,9.26
1738247953.7314076,67494,0,0,,0.0,-0.14,0.13,0.92,0.33,0.27,2.5,0.16,-11.62,6.57,5.53,0.0,0.0,0.0,-3.4,1.33,9.1
1738247953.7474365,67495,0,0,,0.0,-0.16,0.13,0.92,0.33,-0.27,2.34,0.67,-11.08,-9.8,23.11,0.0,0.0,0.0,-3.77,1.24,8.96
1738247953.766909,67496,0,0,,0.0,-0.17,0.13,0.92,0.33,-0.01,1.1,-0.07,-8.24,-0.58,10.69,0.0,0.0,0.0,-3.92,1.3,8.89
1738247953.7814217,67497,0,0,,0.0,-0.17,0.13,0.92,0.33,0.13,0.87,0.0,-8.92,1.48,11.4,0.0,0.0,0.0,-4.0,1.31,8.85
1738247953.7972884,67498,0,0,,0.0,-0.18,0.14,0.92,0.33,-0.03,0.65,-0.01,-2.88,0.5,9.36,0.0,0.0,0.0,-4.09,1.31,8.81
1738247953.816999,67499,0,0,,0.0,-0.18,0.14,0.92,0.33,0.1,0.48,-0.01,-3.74,2.39,9.15,0.0,0.0,0.0,-4.13,1.32,8.79
1738247953.8309863,67500,0,0,,0.0,-0.19,0.14,0.92,0.33,0.02,0.51,-0.03,-3.4,1.09,8.98,0.0,0.0,0.0,-4.22,1.32,8.75
1738247953.8474317,67501,0,0,,0.0,-0.19,0.14,0.92,0.33,0.06,0.51,-0.01,-5.75,2.11,8.4,0.0,0.0,0.0,-4.31,1.32,8.7
1738247953.866815,67502,0,0,,0.0,-0.19,0.14,0.91,0.32,-0.04,0.53,-0.06,-5.74,0.94,9.41,0.0,0.0,0.0,-4.36,1.32,8.68
1738247953.882603,67503,0,0,,0.0,-0.2,0.14,0.91,0.32,0.08,0.28,0.01,-5.02,0.63,9.37,0.0,0.0,0.0,-4.42,1.32,8.65
1738247953.897532,67504,0,0,,0.0,-0.2,0.15,0.91,0.32,0.15,0.2,0.06,-5.69,1.4,8.82,0.0,0.0,0.0,-4.44,1.36,8.63
1738247953.9170291,67505,0,0,,0.0,-0.2,0.15,0.91,0.32,0.21,0.07,0.1,-4.62,1.88,9.12,0.0,0.0,0.0,-4.45,1.38,8.62
1738247953.931318,67506,0,0,,0.0,-0.2,0.15,0.91,0.32,0.18,0.02,0.09,-5.1,1.48,8.61,0.0,0.0,0.0,-4.45,1.42,8.61
1738247953.947421,67507,0,0,,0.0,-0.2,0.15,0.91,0.32,0.17,-0.02,0.09,-4.15,1.87,8.69,0.0,0.0,0.0,-4.44,1.46,8.61
1738247953.9668303,67508,0,0,,0.0,-0.19,0.15,0.91,0.32,0.12,-0.03,0.07,-5.39,1.25,8.26,0.0,0.0,0.0,-4.44,1.47,8.61
1738247953.9812489,67509,0,0,,0.0,-0.19,0.15,0.91,0.32,0.09,-0.04,0.06,-3.92,2.2,8.84,0.0,0.0,0.0,-4.43,1.49,8.61
1738247953.9978554,67510,0,0,,0.0,-0.19,0.15,0.91,0.32,0.09,-0.06,0.06,-4.66,1.27,8.52,0.0,0.0,0.0,-4.42,1.51,8.61
1738247954.0165,67511,0,0,,0.0,-0.19,0.15,0.91,0.32,0.05,0.0,0.05,-5.32,1.33,8.09,0.0,0.0,0.0,-4.42,1.51,8.61
1738247954.031174,67512,0,0,,0.0,-0.19,0.15,0.91,0.32,0.04,-0.03,0.04,-3.89,1.97,8.59,0.0,0.0,0.0,-4.42,1.53,8.61
1738247954.0469854,67513,0,0,,0.0,-0.19,0.15,0.91,0.32,0.01,0.0,0.03,-4.88,1.57,8.39,0.0,0.0,0.0,-4.42,1.53,8.61
1738247954.0666866,67514,0,0,,0.0,-0.19,0.15,0.91,0.32,0.01,-0.02,0.01,-4.12,2.05,8.54,0.0,0.0,0.0,-4.42,1.54,8.61
1738247954.081225,67515,0,0,,0.0,-0.19,0.15,0.91,0.32,0.01,-0.02,0.01,-4.99,1.56,8.37,0.0,0.0,0.0,-4.42,1.54,8.61
1738247954.097524,67516,0,0,,0.0,-0.19,0.15,0.91,0.32,0.02,-0.03,0.01,-4.45,1.59,8.62,0.0,0.0,0.0,-4.41,1.54,8.61
1738247954.1170027,67517,0,0,,0.0,-0.19,0.15,0.91,0.32,0.05,-0.04,0.02,-4.19,1.59,8.7,0.0,0.0,0.0,-4.4,1.55,8.62
1738247954.1313102,67518,0,0,,0.0,-0.19,0.15,0.91,0.32,0.07,0.01,0.04,-5.02,1.71,8.38,0.0,0.0,0.0,-4.4,1.56,8.61
1738247954.1471977,67519,0,0,,0.0,-0.19,0.16,0.91,0.32,0.09,-0.0,0.05,-3.96,1.69,8.81,0.0,0.0,0.0,-4.4,1.58,8.61
1738247954.1666157,67520,0,0,,0.0,-0.19,0.16,0.91,0.32,0.09,0.01,0.06,-4.35,1.86,8.6,0.0,0.0,0.0,-4.4,1.6,8.61
1738247954.1809483,67521,0,0,,0.0,-0.19,0.16,0.91,0.32,0.08,0.02,0.06,-4.04,1.79,8.74,0.0,0.0,0.0,-4.41,1.62,8.6
1738247954.1968396,67522,0,0,,0.0,-0.19,0.16,0.91,0.32,0.08,0.01,0.05,-4.53,1.67,8.69,0.0,0.0,0.0,-4.41,1.64,8.6
1738247954.21666,67523,0,0,,0.0,-0.19,0.16,0.91,0.32,0.07,0.04,0.03,-5.03,1.85,8.46,0.0,0.0,0.0,-4.41,1.64,8.6
1738247954.23114,67524,0,0,,0.0,-0.19,0.16,0.91,0.32,0.07,0.03,0.02,-4.62,1.56,8.64,0.0,0.0,0.0,-4.41,1.66,8.59
1738247954.2472029,67525,0,0,,0.0,-0.19,0.16,0.91,0.32,0.07,0.04,0.02,-4.98,1.37,8.42,0.0,0.0,0.0,-4.42,1.67,8.58
1738247954.2670786,67526,0,0,,0.0,-0.19,0.16,0.91,0.32,0.07,0.04,0.02,-4.2,1.82,8.78,0.0,0.0,0.0,-4.42,1.68,8.58
1738247954.281328,67527,0,0,,0.0,-0.19,0.16,0.91,0.32,0.07,0.07,0.01,-4.71,1.68,8.49,0.0,0.0,0.0,-4.43,1.69,8.57
1738247954.2968218,67528,0,0,,0.0,-0.19,0.16,0.91,0.32,0.07,0.08,0.01,-4.81,1.65,8.27,0.0,0.0,0.0,-4.45,1.7,8.56
1738247954.3169835,67529,0,0,,0.0,-0.19,0.16,0.91,0.32,0.07,0.1,-0.02,-4.44,1.77,8.49,0.0,0.0,0.0,-4.46,1.71,8.56
1738247954.3314445,67530,0,0,,0.0,-0.19,0.16,0.91,0.32,0.07,0.15,-0.05,-4.57,1.99,8.45,0.0,0.0,0.0,-4.49,1.72,8.54
1738247954.3471434,67531,0,0,,0.0,-0.19,0.17,0.91,0.32,0.07,0.16,-0.06,-3.83,2.06,8.71,0.0,0.0,0.0,-4.5,1.72,8.53
1738247954.366981,67532,0,0,,0.0,-0.2,0.17,0.91,0.32,0.06,0.25,-0.1,-4.68,1.59,8.46,0.0,0.0,0.0,-4.54,1.73,8.51
1738247954.3813508,67533,0,0,,0.0,-0.2,0.17,0.91,0.32,0.07,0.38,-0.14,-4.04,1.95,8.77,0.0,0.0,0.0,-4.6,1.73,8.48
1738247954.397149,67534,0,0,,0.0,-0.2,0.17,0.91,0.32,0.06,0.45,-0.15,-4.8,1.85,8.38,0.0,0.0,0.0,-4.68,1.72,8.43
1738247954.4173138,67535,0,0,,0.0,-0.21,0.17,0.91,0.32,0.06,0.64,-0.19,-4.98,1.81,8.44,0.0,0.0,0.0,-4.74,1.72,8.4
1738247954.4316645,67536,0,0,,0.0,-0.21,0.17,0.91,0.32,0.06,0.82,-0.21,-4.54,1.66,8.58,0.0,0.0,0.0,-4.87,1.71,8.33
1738247954.4477377,67537,0,0,,0.0,-0.22,0.18,0.9,0.32,0.06,0.92,-0.22,-5.16,1.6,8.08,0.0,0.0,0.0,-5.03,1.7,8.24
1738247954.4671488,67538,0,0,,0.0,-0.23,0.18,0.9,0.32,0.03,1.11,-0.25,-4.61,2.0,8.51,0.0,0.0,0.0,-5.12,1.69,8.18
1738247954.481719,67539,0,0,,0.0,-0.24,0.18,0.9,0.32,-0.03,1.37,-0.32,-3.9,1.06,8.97,0.0,0.0,0.0,-5.34,1.66,8.05
1738247954.497949,67540,0,0,,0.0,-0.25,0.18,0.89,0.32,-0.09,1.59,-0.38,-7.5,2.16,9.84,0.0,0.0,0.0,-5.6,1.6,7.88
1738247954.5178502,67541,0,0,,0.0,-0.27,0.19,0.89,0.32,-0.14,1.77,-0.43,-4.11,2.18,7.02,0.0,0.0,0.0,-5.74,1.57,7.78
1738247954.5319014,67542,0,0,,0.0,-0.28,0.19,0.88,0.32,-0.3,2.25,-0.63,-7.88,1.36,7.74,0.0,0.0,0.0,-6.08,1.46,7.55
1738247954.5481904,67543,0,0,,0.0,-0.3,0.19,0.87,0.32,-0.28,2.27,-0.64,-3.96,1.42,7.66,0.0,0.0,0.0,-6.44,1.34,7.26
1738247954.5673807,67544,0,0,,0.0,-0.32,0.19,0.87,0.32,-0.36,2.68,-0.68,-6.64,1.86,6.95,0.0,0.0,0.0,-6.64,1.27,7.1
1738247954.5818222,67545,0,0,,0.0,-0.34,0.2,0.86,0.32,-0.35,2.99,-0.84,-6.33,2.13,7.55,0.0,0.0,0.0,-7.04,1.12,6.72
1738247954.5982225,67546,0,0,,0.0,-0.37,0.2,0.84,0.33,-0.4,3.2,-0.97,-6.82,2.69,7.62,0.0,0.0,0.0,-7.48,0.91,6.26
1738247954.6176064,67547,0,0,,0.0,-0.41,0.2,0.83,0.33,-0.73,3.9,-1.4,-6.26,2.54,10.02,0.0,0.0,0.0,-7.72,0.77,5.98
1738247954.6324024,67548,0,0,,0.0,-0.44,0.2,0.81,0.33,-0.86,5.36,-1.79,-9.24,-0.94,9.65,0.0,0.0,0.0,-8.28,0.4,5.22
1738247954.6483994,67549,0,0,,0.0,-0.49,0.21,0.78,0.32,-0.79,6.07,-1.71,-9.95,-0.48,10.09,0.0,0.0,0.0,-8.87,0.03,4.17
1738247954.66786,67550,0,0,,0.0,-0.55,0.21,0.74,0.32,-0.73,7.03,-2.09,-10.46,4.54,12.82,0.0,0.0,0.0,-9.13,-0.17,3.56
1738247954.682449,67551,0,0,,0.0,-0.59,0.22,0.71,0.32,-0.97,7.92,-2.28,-13.07,3.3,18.1,0.0,0.0,0.0,-9.54,-0.63,2.16
1738247954.6982784,67552,0,0,,0.0,-0.64,0.23,0.67,0.31,-0.81,7.92,-2.0,-19.19,-3.31,23.67,0.0,0.0,0.0,-9.71,-0.96,0.88
1738247954.717814,67553,0,0,,0.0,-0.64,0.23,0.66,0.32,0.89,2.48,-0.86,-14.85,11.73,17.95,0.0,0.0,0.0,-9.72,-1.04,0.66
1738247954.732261,67554,0,0,,0.0,-0.64,0.22,0.66,0.32,-0.44,-0.65,-0.9,-3.54,4.2,9.37,0.0,0.0,0.0,-9.7,-1.2,0.72
1738247954.7486782,67555,0,0,,0.0,-0.64,0.21,0.66,0.33,-0.7,-0.54,-0.74,-4.15,0.05,7.73,0.0,0.0,0.0,-9.67,-1.35,0.81
1738247954.767949,67556,0,0,,0.0,-0.64,0.21,0.66,0.33,0.13,-0.75,-0.76,-4.1,1.7,9.83,0.0,0.0,0.0,-9.66,-1.42,0.88
1738247954.7825284,67557,0,0,,0.0,-0.63,0.2,0.67,0.34,0.25,-1.78,-0.55,-3.29,1.23,9.03,0.0,0.0,0.0,-9.61,-1.53,1.16
1738247954.798416,67558,0,0,,0.0,-0.61,0.19,0.68,0.35,0.2,-2.4,-0.45,-3.0,0.42,8.18,0.0,0.0,0.0,-9.53,-1.59,1.66
1738247954.8178637,67559,0,0,,0.0,-0.6,0.19,0.69,0.35,0.46,-3.24,-0.2,-3.23,0.26,7.44,0.0,0.0,0.0,-9.47,-1.6,1.97
1738247954.8322444,67560,0,0,,0.0,-0.58,0.18,0.71,0.36,0.49,-3.91,0.02,-4.64,0.9,6.6,0.0,0.0,0.0,-9.3,-1.59,2.66
1738247954.8480332,67561,0,0,,0.0,-0.54,0.17,0.73,0.37,0.39,-4.25,0.06,-4.76,1.04,6.13,0.0,0.0,0.0,-9.04,-1.55,3.45
1738247954.867705,67562,0,0,,0.0,-0.53,0.16,0.75,0.37,0.29,-4.66,0.31,-5.05,1.73,5.23,0.0,0.0,0.0,-8.88,-1.51,3.86
1738247954.8822453,67563,0,0,,0.0,-0.49,0.15,0.77,0.38,0.47,-4.78,0.86,-6.17,1.21,5.75,0.0,0.0,0.0,-8.51,-1.36,4.67
1738247954.898303,67564,0,0,,0.0,-0.45,0.14,0.8,0.38,0.53,-4.83,1.07,-6.78,0.94,5.97,0.0,0.0,0.0,-8.06,-1.12,5.46
1738247954.9178045,67565,0,0,,0.0,-0.43,0.14,0.81,0.38,0.53,-4.87,1.42,-8.47,1.88,6.5,0.0,0.0,0.0,-7.8,-0.98,5.84
1738247954.932847,67566,0,0,,0.0,-0.39,0.13,0.83,0.37,0.44,-4.78,1.85,-9.79,1.68,7.06,0.0,0.0,0.0,-7.25,-0.67,6.55
1738247954.9486578,67567,0,0,,0.0,-0.34,0.13,0.86,0.36,0.45,-4.7,2.05,-10.41,0.77,7.32,0.0,0.0,0.0,-6.66,-0.32,7.18
1738247954.967797,67568,0,0,,0.0,-0.32,0.12,0.87,0.36,0.53,-4.47,2.19,-11.54,-0.03,8.44,0.0,0.0,0.0,-6.34,-0.15,7.47
1738247954.9825788,67569,0,0,,0.0,-0.28,0.12,0.89,0.34,0.87,-4.24,2.22,-14.15,-1.14,10.25,0.0,0.0,0.0,-5.7,0.21,7.97
1738247954.9988534,67570,0,0,,0.0,-0.24,0.12,0.9,0.33,1.03,-4.18,2.18,-14.65,-1.75,10.45,0.0,0.0,0.0,-5.37,0.41,8.19
1738247955.0177286,67571,0,0,,0.0,-0.22,0.12,0.91,0.33,1.18,-4.12,1.92,-15.3,-1.86,11.09,0.0,0.0,0.0,-4.67,0.79,8.58
1738247955.0325744,67572,0,0,,0.0,-0.18,0.12,0.92,0.32,1.07,-4.1,1.55,-15.55,-3.47,10.17,0.0,0.0,0.0,-3.94,1.12,8.9
1738247955.0486026,67573,0,0,,0.0,-0.13,0.12,0.93,0.32,1.12,-4.05,1.27,-15.39,-4.3,9.58,0.0,0.0,0.0,-3.22,1.39,9.15
1738247955.0677955,67574,0,0,,0.0,-0.12,0.12,0.93,0.32,1.18,-3.85,0.45,-14.77,-2.82,7.8,0.0,0.0,0.0,-2.87,1.51,9.25
1738247955.082534,67575,0,0,,0.0,-0.08,0.12,0.94,0.32,1.07,-3.54,0.03,-13.13,-0.9,4.73,0.0,0.0,0.0,-2.21,1.72,9.39
1738247955.0981596,67576,0,0,,0.0,-0.05,0.12,0.94,0.33,0.98,-3.2,-0.03,-12.11,-0.44,2.04,0.0,0.0,0.0,-1.92,1.81,9.44
1738247955.1178012,67577,0,0,,0.0,-0.04,0.12,0.94,0.33,0.94,-2.27,0.02,-11.56,-0.83,-0.2,0.0,0.0,0.0,-1.45,1.98,9.49
1738247955.1325228,67578,0,0,,0.0,-0.02,0.12,0.94,0.33,0.77,-1.11,0.0,-11.08,-1.72,-2.19,0.0,0.0,0.0,-1.19,2.14,9.49
1738247955.148552,67579,0,0,,0.0,-0.02,0.13,0.93,0.33,0.51,-0.49,-0.07,-11.4,-1.64,-1.7,0.0,0.0,0.0,-1.15,2.18,9.48
1738247955.1678202,67580,0,0,,0.0,-0.02,0.13,0.93,0.33,-0.17,0.56,-0.22,-12.52,-1.57,0.94,0.0,0.0,0.0,-1.22,2.17,9.48
1738247955.1821449,67581,0,0,,0.0,-0.03,0.12,0.93,0.33,-0.68,1.14,-0.18,-11.1,0.4,1.97,0.0,0.0,0.0,-1.41,2.07,9.47
1738247955.1981666,67582,0,0,,0.0,-0.05,0.12,0.93,0.33,-0.99,1.49,-0.12,-11.12,0.57,2.27,0.0,0.0,0.0,-1.55,1.98,9.47
1738247955.2176065,67583,0,0,,0.0,-0.06,0.12,0.93,0.33,-1.13,1.66,-0.02,3.22,1.58,9.91,0.0,0.0,0.0,-1.87,1.76,9.46
1738247955.2324522,67584,0,0,,0.0,-0.08,0.12,0.93,0.33,-1.2,2.82,-0.69,4.97,7.08,19.0,0.0,0.0,0.0,-2.29,1.55,9.4
1738247955.2487774,67585,0,0,,0.0,-0.12,0.11,0.93,0.33,-2.08,3.96,-1.01,-14.88,-4.17,12.55,0.0,0.0,0.0,-2.66,1.34,9.34
1738247955.2676814,67586,0,0,,0.0,-0.13,0.11,0.93,0.33,-0.34,2.42,-0.36,-9.6,1.12,11.05,0.0,0.0,0.0,-3.19,1.16,9.19
1738247955.2824569,67587,0,0,,0.0,-0.15,0.11,0.92,0.33,-0.68,1.73,-0.45,-8.13,-2.14,14.87,0.0,0.0,0.0,-3.51,1.04,9.09
1738247955.2984216,67588,0,0,,0.0,-0.16,0.12,0.92,0.33,-0.17,1.32,-0.14,-6.66,0.39,10.43,0.0,0.0,0.0,-3.63,1.02,9.04
1738247955.3175778,67589,0,0,,0.0,-0.17,0.12,0.92,0.33,0.06,0.89,0.07,-6.77,0.8,10.49,0.0,0.0,0.0,-3.8,1.03,8.97
1738247955.3320944,67590,0,0,,0.0,-0.17,0.12,0.92,0.33,0.21,0.6,0.09,-3.23,1.08,9.26,0.0,0.0,0.0,-3.91,1.07,8.92
1738247955.3483915,67591,0,0,,0.0,-0.18,0.13,0.92,0.33,0.22,0.74,0.14,-5.0,0.71,8.66,0.0,0.0,0.0,-3.97,1.09,8.89
1738247955.3667634,67592,0,0,,0.0,-0.18,0.13,0.92,0.33,0.28,0.65,0.14,-3.63,2.87,8.73,0.0,0.0,0.0,-4.08,1.15,8.83
1738247955.3812306,67593,0,0,,0.0,-0.19,0.13,0.92,0.33,0.13,0.77,0.07,-5.23,0.83,8.13,0.0,0.0,0.0,-4.21,1.19,8.77
1738247955.397756,67594,0,0,,0.0,-0.19,0.13,0.92,0.33,0.14,0.76,0.06,-5.25,0.29,8.84,0.0,0.0,0.0,-4.27,1.2,8.74
1738247955.4172018,67595,0,0,,0.0,-0.19,0.14,0.91,0.33,0.25,0.54,0.09,-5.92,1.32,9.14,0.0,0.0,0.0,-4.37,1.25,8.68
1738247955.4314547,67596,0,0,,0.0,-0.2,0.14,0.91,0.32,0.3,0.29,0.16,-5.53,1.08,8.8,0.0,0.0,0.0,-4.43,1.31,8.64
1738247955.4476495,67597,0,0,,0.0,-0.2,0.14,0.91,0.32,0.29,0.2,0.16,-4.85,1.94,9.03,0.0,0.0,0.0,-4.44,1.34,8.63
1738247955.4672205,67598,0,0,,0.0,-0.2,0.15,0.91,0.32,0.2,0.08,0.12,-5.37,1.49,8.57,0.0,0.0,0.0,-4.45,1.39,8.62
1738247955.4815605,67599,0,0,,0.0,-0.2,0.15,0.91,0.32,0.16,0.0,0.09,-4.84,1.95,8.55,0.0,0.0,0.0,-4.45,1.43,8.61
1738247955.4977896,67600,0,0,,0.0,-0.2,0.15,0.91,0.32,0.13,-0.01,0.09,-5.29,1.34,8.46,0.0,0.0,0.0,-4.45,1.44,8.61
1738247955.5167131,67601,0,0,,0.0,-0.2,0.15,0.91,0.32,0.09,-0.04,0.07,-4.92,1.58,8.51,0.0,0.0,0.0,-4.44,1.47,8.61
1738247955.5312097,67602,0,0,,0.0,-0.19,0.15,0.91,0.32,0.07,-0.04,0.07,-4.5,1.69,8.36,0.0,0.0,0.0,-4.43,1.49,8.61
1738247955.5477395,67603,0,0,,0.0,-0.19,0.15,0.91,0.32,0.06,-0.02,0.07,-4.93,1.45,8.29,0.0,0.0,0.0,-4.43,1.49,8.61
1738247955.566822,67604,0,0,,0.0,-0.19,0.15,0.91,0.32,0.05,-0.02,0.06,-3.73,2.08,8.59,0.0,0.0,0.0,-4.43,1.51,8.61
1738247955.581369,67605,0,0,,0.0,-0.19,0.15,0.91,0.32,0.03,0.06,0.04,-4.72,1.84,8.44,0.0,0.0,0.0,-4.43,1.52,8.61
1738247955.597753,67606,0,0,,0.0,-0.19,0.15,0.91,0.32,0.03,0.06,0.01,-4.52,1.27,8.64,0.0,0.0,0.0,-4.44,1.52,8.6
1738247955.6160562,67607,0,0,,0.0,-0.19,0.15,0.91,0.32,0.05,0.05,0.0,-4.98,1.55,8.31,0.0,0.0,0.0,-4.44,1.53,8.6
1738247955.63152,67608,0,0,,0.0,-0.19,0.15,0.91,0.32,0.06,0.04,0.0,-4.08,1.56,8.72,0.0,0.0,0.0,-4.45,1.54,8.59
1738247955.6475701,67609,0,0,,0.0,-0.19,0.15,0.91,0.32,0.09,0.0,0.03,-4.92,1.38,8.59,0.0,0.0,0.0,-4.45,1.55,8.59
1738247955.664999,67610,0,0,,0.0,-0.19,0.16,0.91,0.32,0.09,0.03,0.04,-5.26,1.12,8.22,0.0,0.0,0.0,-4.46,1.56,8.58
1738247955.6807272,67611,0,0,,0.0,-0.19,0.16,0.91,0.32,0.09,0.02,0.04,-4.82,1.5,8.58,0.0,0.0,0.0,-4.47,1.58,8.58
1738247955.6973329,67612,0,0,,0.0,-0.19,0.16,0.91,0.32,0.09,0.02,0.04,-4.43,2.07,8.58,0.0,0.0,0.0,-4.47,1.59,8.57
1738247955.716071,67613,0,0,,0.0,-0.19,0.16,0.91,0.32,0.09,0.01,0.03,-4.4,1.74,8.54,0.0,0.0,0.0,-4.47,1.61,8.57
1738247955.7311683,67614,0,0,,0.0,-0.19,0.16,0.91,0.32,0.08,0.02,0.03,-4.49,2.07,8.47,0.0,0.0,0.0,-4.47,1.63,8.57
1738247955.7474475,67615,0,0,,0.0,-0.19,0.16,0.91,0.32,0.06,0.05,0.01,-4.99,1.54,8.32,0.0,0.0,0.0,-4.48,1.63,8.56
1738247955.7655354,67616,0,0,,0.0,-0.2,0.16,0.91,0.32,0.06,0.08,0.0,-4.85,1.7,8.42,0.0,0.0,0.0,-4.49,1.65,8.55
1738247955.781239,67617,0,0,,0.0,-0.2,0.16,0.91,0.32,0.06,0.09,0.0,-5.41,1.63,8.33,0.0,0.0,0.0,-4.52,1.66,8.54
1738247955.7974205,67618,0,0,,0.0,-0.2,0.16,0.91,0.32,0.06,0.12,-0.01,-4.49,1.76,8.7,0.0,0.0,0.0,-4.53,1.66,8.53
1738247955.814862,67619,0,0,,0.0,-0.2,0.16,0.91,0.32,0.07,0.17,-0.0,-4.6,1.59,8.25,0.0,0.0,0.0,-4.56,1.67,8.51
1738247955.830613,67620,0,0,,0.0,-0.2,0.16,0.91,0.32,0.07,0.2,-0.01,-4.5,1.63,8.49,0.0,0.0,0.0,-4.59,1.69,8.49
1738247955.8474534,67621,0,0,,0.0,-0.2,0.17,0.91,0.32,0.09,0.29,-0.03,-4.94,1.81,8.45,0.0,0.0,0.0,-4.62,1.69,8.47
1738247955.8648748,67622,0,0,,0.0,-0.2,0.17,0.91,0.32,0.1,0.39,-0.07,-5.44,1.72,8.18,0.0,0.0,0.0,-4.68,1.7,8.44
1738247955.8805866,67623,0,0,,0.0,-0.21,0.17,0.91,0.32,0.1,0.42,-0.09,-4.7,1.84,8.31,0.0,0.0,0.0,-4.76,1.71,8.39
1738247955.8977196,67624,0,0,,0.0,-0.21,0.17,0.91,0.32,0.11,0.54,-0.12,-5.26,1.65,8.1,0.0,0.0,0.0,-4.8,1.72,8.37
1738247955.9149313,67625,0,0,,0.0,-0.22,0.17,0.91,0.32,0.13,0.65,-0.15,-4.63,1.84,8.47,0.0,0.0,0.0,-4.91,1.72,8.3
1738247955.9309812,67626,0,0,,0.0,-0.22,0.18,0.9,0.32,0.13,0.73,-0.17,-4.91,1.82,8.39,0.0,0.0,0.0,-5.04,1.73,8.23
1738247955.9475155,67627,0,0,,0.0,-0.23,0.18,0.9,0.32,0.13,0.89,-0.2,-4.76,1.9,8.45,0.0,0.0,0.0,-5.11,1.73,8.18
1738247955.9658163,67628,0,0,,0.0,-0.23,0.18,0.9,0.32,0.13,1.05,-0.23,-5.14,1.84,7.99,0.0,0.0,0.0,-5.27,1.73,8.08
1738247955.9812088,67629,0,0,,0.0,-0.24,0.19,0.9,0.32,0.1,1.14,-0.27,-4.89,2.15,8.11,0.0,0.0,0.0,-5.46,1.71,7.95
1738247955.9981978,67630,0,0,,0.0,-0.25,0.19,0.89,0.32,0.01,1.32,-0.35,-5.33,2.06,8.02,0.0,0.0,0.0,-5.57,1.7,7.88
1738247956.0156915,67631,0,0,,0.0,-0.26,0.19,0.89,0.32,-0.08,1.53,-0.44,-4.42,1.66,7.21,0.0,0.0,0.0,-5.8,1.64,7.72
1738247956.0316503,67632,0,0,,0.0,-0.28,0.19,0.88,0.32,-0.14,1.71,-0.52,-8.32,2.79,9.06,0.0,0.0,0.0,-6.09,1.56,7.52
1738247956.0483677,67633,0,0,,0.0,-0.29,0.19,0.88,0.32,-0.24,2.0,-0.47,-5.22,1.83,6.23,0.0,0.0,0.0,-6.24,1.51,7.4
1738247956.066104,67634,0,0,,0.0,-0.31,0.2,0.87,0.32,-0.3,2.51,-0.7,-8.92,1.27,7.34,0.0,0.0,0.0,-6.59,1.39,7.12
1738247956.081771,67635,0,0,,0.0,-0.34,0.2,0.86,0.32,-0.28,2.64,-0.71,-4.38,1.57,6.93,0.0,0.0,0.0,-6.97,1.27,6.77
1738247956.0978374,67636,0,0,,0.0,-0.35,0.2,0.85,0.32,-0.2,3.01,-0.75,-7.79,2.09,8.07,0.0,0.0,0.0,-7.17,1.21,6.57
1738247956.1160605,67637,0,0,,0.0,-0.38,0.21,0.84,0.32,-0.22,3.46,-0.93,-6.78,2.18,7.31,0.0,0.0,0.0,-7.6,1.05,6.09
1738247956.1320186,67638,0,0,,0.0,-0.42,0.22,0.82,0.32,-0.32,3.92,-1.08,-7.04,2.85,9.1,0.0,0.0,0.0,-8.09,0.83,5.47
1738247956.148163,67639,0,0,,0.0,-0.44,0.22,0.81,0.32,-0.8,5.17,-1.23,-10.54,1.96,11.76,0.0,0.0,0.0,-8.36,0.69,5.06
1738247956.1661327,67640,0,0,,0.0,-0.49,0.23,0.78,0.31,-0.64,6.68,-0.91,-11.29,0.73,11.24,0.0,0.0,0.0,-8.93,0.47,4.0
1738247956.1818843,67641,0,0,,0.0,-0.55,0.24,0.74,0.3,-0.42,7.18,-1.15,-16.19,7.78,17.12,0.0,0.0,0.0,-9.42,0.22,2.7
1738247956.1981354,67642,0,0,,0.0,-0.58,0.24,0.72,0.3,-0.56,7.55,-1.47,-17.2,4.59,18.18,0.0,0.0,0.0,-9.59,0.07,2.01
1738247956.2165272,67643,0,0,,0.0,-0.63,0.25,0.68,0.29,-0.73,4.9,-1.74,-20.89,2.94,19.5,0.0,0.0,0.0,-9.76,-0.27,0.88
1738247956.231907,67644,0,0,,0.0,-0.64,0.24,0.67,0.29,-0.54,2.1,-1.53,-4.85,4.84,12.43,0.0,0.0,0.0,-9.77,-0.55,0.62
1738247956.24864,67645,0,0,,0.0,-0.65,0.23,0.67,0.29,-0.84,0.58,-1.58,-7.62,2.16,10.86,0.0,0.0,0.0,-9.76,-0.71,0.56
1738247956.2666306,67646,0,0,,0.0,-0.65,0.22,0.66,0.3,-0.38,0.11,-1.58,-6.56,5.63,11.07,0.0,0.0,0.0,-9.73,-1.03,0.5
1738247956.2821987,67647,0,0,,0.0,-0.65,0.21,0.66,0.31,-0.36,-0.25,-1.3,-4.5,3.26,8.24,0.0,0.0,0.0,-9.7,-1.26,0.57
1738247956.2984126,67648,0,0,,0.0,-0.65,0.2,0.66,0.31,-0.48,-0.86,-0.88,-3.06,1.71,7.33,0.0,0.0,0.0,-9.69,-1.35,0.64
1738247956.316622,67649,0,0,,0.0,-0.65,0.19,0.67,0.31,0.03,-1.45,-0.51,-2.5,3.17,7.59,0.0,0.0,0.0,-9.65,-1.46,0.88
1738247956.332107,67650,0,0,,0.0,-0.63,0.18,0.68,0.32,0.03,-1.87,-0.36,-1.19,1.1,5.53,0.0,0.0,0.0,-9.6,-1.51,1.27
1738247956.3487473,67651,0,0,,0.0,-0.62,0.18,0.69,0.32,0.14,-2.6,-0.09,-1.55,0.81,6.09,0.0,0.0,0.0,-9.56,-1.52,1.51
1738247956.3664205,67652,0,0,,0.0,-0.6,0.17,0.71,0.33,0.36,-3.29,0.03,-2.5,0.2,6.48,0.0,0.0,0.0,-9.45,-1.51,2.09
1738247956.3818183,67653,0,0,,0.0,-0.57,0.16,0.73,0.34,0.45,-3.68,0.01,-3.87,0.47,6.35,0.0,0.0,0.0,-9.27,-1.48,2.8
1738247956.3986347,67654,0,0,,0.0,-0.56,0.16,0.74,0.34,0.74,-4.26,0.07,-4.35,1.06,6.05,0.0,0.0,0.0,-9.15,-1.45,3.19
1738247956.4163337,67655,0,0,,0.0,-0.52,0.15,0.76,0.35,0.89,-4.71,0.32,-6.02,-1.02,5.62,0.0,0.0,0.0,-8.83,-1.35,4.02
1738247956.4324229,67656,0,0,,0.0,-0.48,0.14,0.79,0.36,1.05,-4.86,0.39,-7.46,-2.73,5.77,0.0,0.0,0.0,-8.42,-1.18,4.87
1738247956.4488904,67657,0,0,,0.0,-0.46,0.14,0.8,0.37,1.44,-5.08,0.26,-9.18,-0.66,6.44,0.0,0.0,0.0,-8.17,-1.09,5.3
1738247956.4663568,67658,0,0,,0.0,-0.41,0.14,0.82,0.38,1.53,-5.16,0.4,-10.42,1.72,6.07,0.0,0.0,0.0,-7.61,-0.87,6.11
1738247956.4828372,67659,0,0,,0.0,-0.36,0.13,0.84,0.38,1.45,-5.14,0.68,-10.93,0.47,4.45,0.0,0.0,0.0,-6.98,-0.57,6.85
1738247956.4987051,67660,0,0,,0.0,-0.34,0.13,0.85,0.38,1.43,-4.72,1.42,-12.19,-0.42,5.67,0.0,0.0,0.0,-6.67,-0.38,7.17
1738247956.516929,67661,0,0,,0.0,-0.3,0.13,0.87,0.38,1.59,-4.15,1.87,-17.09,-1.34,9.81,0.0,0.0,0.0,-6.06,0.05,7.7
1738247956.532827,67662,0,0,,0.0,-0.25,0.14,0.88,0.37,1.53,-4.27,1.92,-17.86,-2.18,9.58,0.0,0.0,0.0,-5.39,0.49,8.17
1738247956.548607,67663,0,0,,0.0,-0.23,0.14,0.89,0.37,1.19,-4.34,1.76,-18.49,-1.86,10.33,0.0,0.0,0.0,-5.03,0.67,8.38
1738247956.5667622,67664,0,0,,0.0,-0.19,0.13,0.9,0.36,0.79,-4.51,1.58,-16.65,-2.13,8.79,0.0,0.0,0.0,-4.26,0.97,8.77
1738247956.583141,67665,0,0,,0.0,-0.15,0.12,0.91,0.36,0.65,-4.49,1.49,-14.93,-3.02,7.15,0.0,0.0,0.0,-3.47,1.18,9.09
1738247956.5988262,67666,0,0,,0.0,-0.13,0.12,0.92,0.35,0.59,-4.08,1.29,-14.53,-2.92,6.97,0.0,0.0,0.0,-3.09,1.28,9.21
1738247956.6167896,67667,0,0,,0.0,-0.09,0.11,0.93,0.35,0.39,-3.43,1.02,-12.9,-1.82,3.87,0.0,0.0,0.0,-2.42,1.42,9.39
1738247956.6328542,67668,0,0,,0.0,-0.07,0.11,0.93,0.34,0.28,-2.99,0.92,-10.66,-2.98,-0.96,0.0,0.0,0.0,-1.9,1.5,9.5
1738247956.6485765,67669,0,0,,0.0,-0.06,0.1,0.93,0.34,0.14,-1.53,0.6,-11.78,-4.0,-1.59,0.0,0.0,0.0,-1.75,1.52,9.52
1738247956.6664572,67670,0,0,,0.0,-0.05,0.1,0.93,0.34,0.15,-0.07,0.29,-18.56,-4.54,5.56,0.0,0.0,0.0,-1.68,1.56,9.53
1738247956.6824877,67671,0,0,,0.0,-0.05,0.11,0.93,0.34,0.34,0.01,0.38,-14.74,-5.5,-1.2,0.0,0.0,0.0,-1.65,1.62,9.52
1738247956.6989343,67672,0,0,,0.0,-0.05,0.11,0.93,0.34,-0.16,0.15,0.15,-15.15,-4.93,-1.82,0.0,0.0,0.0,-1.66,1.61,9.52
1738247956.71672,67673,0,0,,0.0,-0.06,0.11,0.93,0.34,-0.4,0.62,-0.03,-11.48,-0.77,4.63,0.0,0.0,0.0,-1.81,1.52,9.51
1738247956.7329223,67674,0,0,,0.0,-0.07,0.11,0.93,0.34,-0.38,1.08,-0.18,16.84,1.92,17.82,0.0,0.0,0.0,-2.02,1.46,9.48
1738247956.7487652,67675,0,0,,0.0,-0.08,0.11,0.93,0.34,0.17,1.69,-0.91,21.92,12.61,35.17,0.0,0.0,0.0,-2.18,1.46,9.44
1738247956.7671561,67676,0,0,,0.0,-0.1,0.11,0.93,0.34,-0.45,2.37,-0.91,-9.3,-3.42,0.66,0.0,0.0,0.0,-2.65,1.35,9.34
1738247956.7829032,67677,0,0,,0.0,-0.12,0.12,0.93,0.33,0.02,2.59,0.28,-6.47,-0.86,10.24,0.0,0.0,0.0,-3.06,1.41,9.2
1738247956.7988741,67678,0,0,,0.0,-0.13,0.13,0.93,0.33,0.11,1.88,0.27,-7.37,-3.56,14.4,0.0,0.0,0.0,-3.22,1.43,9.14
1738247956.8166244,67679,0,0,,0.0,-0.15,0.13,0.92,0.33,-0.34,1.71,-0.07,-1.97,2.66,8.48,0.0,0.0,0.0,-3.49,1.42,9.05
1738247956.833429,67680,0,0,,0.0,-0.16,0.14,0.92,0.33,0.21,1.38,0.13,-6.51,3.38,13.9,0.0,0.0,0.0,-3.71,1.47,8.95
1738247956.8489857,67681,0,0,,0.0,-0.16,0.14,0.92,0.33,0.27,0.97,0.2,-4.05,1.6,9.16,0.0,0.0,0.0,-3.79,1.5,8.91
1738247956.867022,67682,0,0,,0.0,-0.17,0.14,0.92,0.32,0.14,1.11,0.12,-5.12,2.5,9.3,0.0,0.0,0.0,-3.96,1.53,8.83
1738247956.883735,67683,0,0,,0.0,-0.18,0.15,0.92,0.32,0.01,0.79,0.03,-5.52,2.53,8.63,0.0,0.0,0.0,-4.09,1.52,8.77
1738247956.89899,67684,0,0,,0.0,-0.18,0.15,0.92,0.32,-0.15,0.69,-0.08,-5.64,1.68,9.05,0.0,0.0,0.0,-4.15,1.51,8.75
1738247956.9174712,67685,0,0,,0.0,-0.18,0.15,0.92,0.32,-0.17,0.56,-0.11,-6.04,1.62,9.04,0.0,0.0,0.0,-4.25,1.48,8.7
1738247956.93301,67686,0,0,,0.0,-0.19,0.15,0.92,0.32,-0.03,0.47,-0.05,-5.71,0.8,9.2,0.0,0.0,0.0,-4.32,1.47,8.67
1738247956.949435,67687,0,0,,0.0,-0.19,0.15,0.92,0.32,0.08,0.26,-0.01,-4.76,1.62,8.69,0.0,0.0,0.0,-4.35,1.48,8.66
1738247956.9672313,67688,0,0,,0.0,-0.19,0.15,0.91,0.32,0.1,0.25,-0.0,-6.01,1.02,8.62,0.0,0.0,0.0,-4.38,1.5,8.64
1738247956.983321,67689,0,0,,0.0,-0.19,0.15,0.91,0.32,0.1,0.07,0.01,-5.35,1.24,8.6,0.0,0.0,0.0,-4.39,1.52,8.63
1738247956.9991663,67690,0,0,,0.0,-0.19,0.15,0.91,0.32,0.08,0.01,0.02,-5.09,1.43,8.57,0.0,0.0,0.0,-4.39,1.52,8.63
1738247957.0170987,67691,0,0,,0.0,-0.19,0.15,0.91,0.32,0.08,-0.03,0.03,-4.43,1.71,8.74,0.0,0.0,0.0,-4.38,1.54,8.63
1738247957.0331767,67692,0,0,,0.0,-0.19,0.15,0.91,0.32,0.07,-0.09,0.04,-4.62,1.77,8.38,0.0,0.0,0.0,-4.36,1.55,8.64
1738247957.0494456,67693,0,0,,0.0,-0.19,0.15,0.91,0.32,0.04,-0.05,0.03,-4.5,1.82,8.6,0.0,0.0,0.0,-4.36,1.56,8.64
1738247957.0673916,67694,0,0,,0.0,-0.19,0.15,0.92,0.32,0.03,-0.06,0.02,-4.67,1.81,8.3,0.0,0.0,0.0,-4.35,1.56,8.64
1738247957.0838437,67695,0,0,,0.0,-0.19,0.15,0.92,0.32,-0.0,-0.02,0.01,-4.35,1.59,8.45,0.0,0.0,0.0,-4.35,1.56,8.64
1738247957.0991998,67696,0,0,,0.0,-0.19,0.15,0.92,0.32,-0.02,-0.03,-0.01,-3.94,1.9,8.6,0.0,0.0,0.0,-4.35,1.56,8.64
1738247957.1176438,67697,0,0,,0.0,-0.19,0.15,0.92,0.32,-0.03,-0.02,-0.01,-4.71,1.46,8.32,0.0,0.0,0.0,-4.35,1.56,8.64
1738247957.1337612,67698,0,0,,0.0,-0.19,0.15,0.91,0.32,-0.03,-0.01,-0.01,-5.02,1.7,8.49,0.0,0.0,0.0,-4.36,1.56,8.64
1738247957.148929,67699,0,0,,0.0,-0.19,0.15,0.92,0.32,0.0,-0.04,-0.01,-4.6,1.56,8.41,0.0,0.0,0.0,-4.35,1.56,8.64
1738247957.1678138,67700,0,0,,0.0,-0.19,0.15,0.91,0.32,0.02,-0.0,0.01,-4.54,1.68,8.58,0.0,0.0,0.0,-4.36,1.56,8.63
1738247957.1837316,67701,0,0,,0.0,-0.19,0.15,0.91,0.32,0.06,-0.01,0.04,-3.75,1.88,8.83,0.0,0.0,0.0,-4.36,1.58,8.63
1738247957.1995568,67702,0,0,,0.0,-0.19,0.16,0.91,0.32,0.08,0.05,0.07,-4.74,1.49,8.46,0.0,0.0,0.0,-4.37,1.59,8.63
1738247957.2172537,67703,0,0,,0.0,-0.19,0.16,0.91,0.32,0.08,0.05,0.07,-4.04,1.86,8.87,0.0,0.0,0.0,-4.38,1.61,8.62
1738247957.233821,67704,0,0,,0.0,-0.19,0.16,0.91,0.32,0.09,0.04,0.07,-5.46,1.58,8.34,0.0,0.0,0.0,-4.39,1.63,8.61
1738247957.2489483,67705,0,0,,0.0,-0.19,0.16,0.91,0.32,0.1,0.04,0.04,-4.35,1.77,8.75,0.0,0.0,0.0,-4.39,1.64,8.61
1738247957.2676997,67706,0,0,,0.0,-0.19,0.16,0.91,0.32,0.09,0.03,0.05,-4.64,2.08,8.54,0.0,0.0,0.0,-4.39,1.66,8.6
1738247957.283717,67707,0,0,,0.0,-0.19,0.16,0.91,0.32,0.09,0.06,0.04,-4.62,1.5,8.52,0.0,0.0,0.0,-4.41,1.68,8.59
1738247957.2999313,67708,0,0,,0.0,-0.19,0.16,0.91,0.32,0.1,0.05,0.03,-4.73,1.55,8.39,0.0,0.0,0.0,-4.41,1.69,8.58
1738247957.3177307,67709,0,0,,0.0,-0.19,0.16,0.91,0.32,0.1,0.07,0.03,-5.1,1.61,8.41,0.0,0.0,0.0,-4.43,1.71,8.57
1738247957.3342676,67710,0,0,,0.0,-0.19,0.16,0.91,0.32,0.1,0.09,0.01,-4.23,1.87,8.57,0.0,0.0,0.0,-4.45,1.73,8.56
1738247957.3497176,67711,0,0,,0.0,-0.19,0.16,0.91,0.32,0.1,0.16,-0.03,-4.59,1.95,8.51,0.0,0.0,0.0,-4.46,1.73,8.55
1738247957.3676462,67712,0,0,,0.0,-0.19,0.17,0.91,0.32,0.1,0.2,-0.05,-4.63,1.97,8.43,0.0,0.0,0.0,-4.5,1.74,8.53
1738247957.384064,67713,0,0,,0.0,-0.2,0.17,0.91,0.32,0.09,0.29,-0.1,-4.49,1.7,8.57,0.0,0.0,0.0,-4.56,1.75,8.49
1738247957.3998203,67714,0,0,,0.0,-0.2,0.17,0.91,0.32,0.08,0.44,-0.18,-4.82,1.9,8.31,0.0,0.0,0.0,-4.6,1.75,8.47
1738247957.4178147,67715,0,0,,0.0,-0.2,0.17,0.91,0.32,0.07,0.5,-0.21,-4.89,1.69,8.21,0.0,0.0,0.0,-4.7,1.74,8.42
1738247957.4341187,67716,0,0,,0.0,-0.21,0.17,0.91,0.32,0.05,0.67,-0.24,-4.89,1.99,8.57,0.0,0.0,0.0,-4.82,1.73,8.35
1738247957.4495487,67717,0,0,,0.0,-0.21,0.17,0.91,0.32,0.03,0.83,-0.27,-4.73,1.98,8.41,0.0,0.0,0.0,-4.9,1.72,8.31
1738247957.4680464,67718,0,0,,0.0,-0.22,0.18,0.9,0.32,0.02,0.9,-0.28,-4.86,2.05,8.35,0.0,0.0,0.0,-5.06,1.69,8.22
1738247957.4845333,67719,0,0,,0.0,-0.23,0.18,0.9,0.33,-0.02,1.1,-0.33,-5.55,1.81,8.25,0.0,0.0,0.0,-5.25,1.66,8.11
1738247957.499882,67720,0,0,,0.0,-0.24,0.18,0.9,0.33,-0.07,1.28,-0.36,-5.59,1.62,8.07,0.0,0.0,0.0,-5.36,1.63,8.04
1738247957.518386,67721,0,0,,0.0,-0.25,0.18,0.89,0.33,-0.09,1.37,-0.39,-5.48,1.7,7.94,0.0,0.0,0.0,-5.59,1.57,7.9
1738247957.5346975,67722,0,0,,0.0,-0.27,0.19,0.89,0.33,-0.15,1.55,-0.43,-4.91,1.79,8.1,0.0,0.0,0.0,-5.84,1.5,7.72
1738247957.5497754,67723,0,0,,0.0,-0.28,0.19,0.88,0.33,-0.21,1.81,-0.49,-4.41,1.72,7.06,0.0,0.0,0.0,-5.98,1.46,7.62
1738247957.5680106,67724,0,0,,0.0,-0.3,0.19,0.88,0.33,-0.25,2.0,-0.53,-4.52,1.79,7.42,0.0,0.0,0.0,-6.29,1.36,7.39
1738247957.5848236,67725,0,0,,0.0,-0.32,0.19,0.87,0.33,-0.2,2.09,-0.53,-4.63,1.61,5.97,0.0,0.0,0.0,-6.62,1.25,7.12
1738247957.599722,67726,0,0,,0.0,-0.33,0.19,0.86,0.33,-0.25,2.6,-0.74,-8.65,1.15,7.23,0.0,0.0,0.0,-6.8,1.19,6.95
1738247957.6188085,67727,0,0,,0.0,-0.35,0.2,0.85,0.33,-0.27,2.7,-0.83,-7.6,1.48,8.07,0.0,0.0,0.0,-7.19,1.04,6.58
1738247957.6345932,67728,0,0,,0.0,-0.38,0.2,0.84,0.33,-0.33,3.23,-0.93,-7.25,2.32,6.98,0.0,0.0,0.0,-7.61,0.85,6.11
1738247957.6502135,67729,0,0,,0.0,-0.4,0.2,0.83,0.33,-0.45,3.78,-1.2,-7.62,2.05,8.89,0.0,0.0,0.0,-7.84,0.74,5.83
1738247957.66834,67730,0,0,,0.0,-0.44,0.21,0.81,0.33,-0.58,4.26,-1.27,-9.62,2.05,10.47,0.0,0.0,0.0,-8.35,0.48,5.11
1738247957.6850827,67731,0,0,,0.0,-0.49,0.22,0.78,0.32,-0.59,5.65,-1.02,-9.87,-0.14,9.66,0.0,0.0,0.0,-8.88,0.28,4.13
1738247957.7000427,67732,0,0,,0.0,-0.52,0.23,0.76,0.32,-0.09,6.52,-1.29,-10.64,2.98,11.04,0.0,0.0,0.0,-9.13,0.16,3.56
1738247957.7189696,67733,0,0,,0.0,-0.57,0.24,0.72,0.31,-0.2,6.88,-1.57,-10.97,3.35,13.16,0.0,0.0,0.0,-9.53,-0.15,2.27
1738247957.7348297,67734,0,0,,0.0,-0.63,0.25,0.67,0.31,-0.19,7.82,-1.8,-15.42,1.14,16.35,0.0,0.0,0.0,-9.75,-0.48,0.83
1738247957.7503624,67735,0,0,,0.0,-0.65,0.25,0.65,0.3,-0.12,5.58,-1.47,-18.22,3.78,16.11,0.0,0.0,0.0,-9.78,-0.62,0.3
1738247957.7684076,67736,0,0,,0.0,-0.66,0.25,0.63,0.31,0.22,3.18,-1.32,-5.11,6.17,13.48,0.0,0.0,0.0,-9.76,-0.88,-0.05
1738247957.7849803,67737,0,0,,0.0,-0.67,0.24,0.63,0.32,-0.14,-0.17,-1.39,-6.02,2.99,10.54,0.0,0.0,0.0,-9.73,-1.14,-0.02
1738247957.7999651,67738,0,0,,0.0,-0.67,0.23,0.63,0.32,-0.37,-0.51,-1.39,-5.34,1.33,9.24,0.0,0.0,0.0,-9.72,-1.27,0.01
1738247957.8182714,67739,0,0,,0.0,-0.66,0.22,0.63,0.33,-0.12,-0.79,-1.34,-5.53,2.24,9.53,0.0,0.0,0.0,-9.68,-1.52,0.2
1738247957.8353953,67740,0,0,,0.0,-0.65,0.21,0.64,0.34,0.11,-1.75,-1.3,-5.13,2.81,9.56,0.0,0.0,0.0,-9.62,-1.75,0.59
1738247957.850179,67741,0,0,,0.0,-0.64,0.2,0.65,0.35,0.16,-2.89,-1.02,-2.73,3.42,6.66,0.0,0.0,0.0,-9.59,-1.85,0.86
1738247957.8689857,67742,0,0,,0.0,-0.62,0.19,0.67,0.36,0.15,-3.26,-0.84,-3.89,3.58,6.51,0.0,0.0,0.0,-9.48,-1.97,1.49
1738247957.8854167,67743,0,0,,0.0,-0.6,0.17,0.69,0.37,0.22,-3.81,-0.24,-3.18,2.47,5.17,0.0,0.0,0.0,-9.34,-1.99,2.21
1738247957.9003103,67744,0,0,,0.0,-0.58,0.17,0.7,0.37,0.17,-4.16,0.13,-4.12,1.9,5.8,0.0,0.0,0.0,-9.24,-1.98,2.59
1738247957.9187398,67745,0,0,,0.0,-0.55,0.15,0.73,0.38,0.26,-4.29,0.35,-5.07,0.99,5.7,0.0,0.0,0.0,-9.01,-1.88,3.37
1738247957.93602,67746,0,0,,0.0,-0.52,0.14,0.75,0.38,0.26,-4.61,0.74,-5.64,-0.22,6.43,0.0,0.0,0.0,-8.69,-1.72,4.18
1738247957.950594,67747,0,0,,0.0,-0.5,0.14,0.77,0.38,0.61,-4.85,0.95,-7.26,-0.56,7.23,0.0,0.0,0.0,-8.5,-1.61,4.6
1738247957.9689367,67748,0,0,,0.0,-0.45,0.13,0.79,0.38,0.68,-5.02,0.92,-8.89,1.53,8.06,0.0,0.0,0.0,-8.04,-1.39,5.43
1738247957.985585,67749,0,0,,0.0,-0.41,0.12,0.82,0.38,0.74,-5.2,1.18,-9.43,2.02,7.65,0.0,0.0,0.0,-7.48,-1.11,6.23
1738247958.0012438,67750,0,0,,0.0,-0.39,0.12,0.83,0.38,0.76,-5.09,1.73,-10.67,-0.59,7.54,0.0,0.0,0.0,-7.18,-0.94,6.6
1738247958.0191565,67751,0,0,,0.0,-0.34,0.12,0.85,0.37,0.87,-4.93,1.89,-10.72,-2.33,6.48,0.0,0.0,0.0,-6.56,-0.56,7.26
1738247958.035454,67752,0,0,,0.0,-0.3,0.12,0.87,0.37,1.12,-4.37,1.77,-12.02,-2.55,8.29,0.0,0.0,0.0,-5.96,-0.17,7.78
1738247958.0506964,67753,0,0,,0.0,-0.28,0.12,0.88,0.37,1.51,-4.22,1.84,-15.97,-0.14,10.31,0.0,0.0,0.0,-5.63,0.04,8.02
1738247958.0690992,67754,0,0,,0.0,-0.23,0.12,0.9,0.36,1.4,-4.32,1.82,-17.2,-0.7,9.86,0.0,0.0,0.0,-4.95,0.45,8.45
1738247958.085823,67755,0,0,,0.0,-0.19,0.12,0.91,0.35,1.29,-4.04,1.84,-16.89,-1.08,8.58,0.0,0.0,0.0,-4.26,0.81,8.79
1738247958.100708,67756,0,0,,0.0,-0.17,0.12,0.91,0.35,0.95,-3.67,1.54,-15.61,-3.63,6.14,0.0,0.0,0.0,-3.93,0.95,8.93
1738247958.1187582,67757,0,0,,0.0,-0.14,0.12,0.92,0.34,0.91,-3.29,1.32,-13.88,-4.8,2.77,0.0,0.0,0.0,-3.36,1.19,9.13
1738247958.1364212,67758,0,0,,0.0,-0.12,0.12,0.93,0.34,0.8,-2.59,0.66,-13.09,-4.54,1.07,0.0,0.0,0.0,-2.93,1.35,9.25
1738247958.1508234,67759,0,0,,0.0,-0.11,0.12,0.93,0.34,0.61,-1.45,0.1,-14.92,-2.53,1.74,0.0,0.0,0.0,-2.8,1.41,9.28
1738247958.169397,67760,0,0,,0.0,-0.1,0.12,0.93,0.34,0.59,-1.01,0.1,-18.26,-3.28,4.47,0.0,0.0,0.0,-2.65,1.52,9.31
1738247958.1865559,67761,0,0,,0.0,-0.09,0.12,0.93,0.34,0.64,-0.65,0.38,-17.99,-2.58,2.57,0.0,0.0,0.0,-2.51,1.63,9.33
1738247958.2016892,67762,0,0,,0.0,-0.09,0.12,0.93,0.34,-0.01,-0.59,0.05,-16.26,-4.9,-0.54,0.0,0.0,0.0,-2.45,1.63,9.35
1738247958.2189422,67763,0,0,,0.0,-0.09,0.12,0.93,0.34,-0.09,-0.36,-0.03,-14.2,-2.8,-1.57,0.0,0.0,0.0,-2.4,1.6,9.37
1738247958.2364342,67764,0,0,,0.0,-0.09,0.12,0.93,0.34,-0.37,0.06,-0.04,-12.34,-2.04,-1.49,0.0,0.0,0.0,-2.45,1.51,9.37
1738247958.2517846,67765,0,0,,0.0,-0.1,0.12,0.93,0.34,-0.59,0.67,-0.02,-10.69,-1.46,4.33,0.0,0.0,0.0,-2.52,1.46,9.36
1738247958.2693172,67766,0,0,,0.0,-0.1,0.12,0.93,0.34,-0.36,0.6,0.07,23.32,7.57,33.54,0.0,0.0,0.0,-2.61,1.42,9.34
1738247958.2867963,67767,0,0,,0.0,-0.12,0.12,0.92,0.34,0.4,1.5,-0.92,-3.17,12.77,27.38,0.0,0.0,0.0,-2.98,1.39,9.23
1738247958.3014534,67768,0,0,,0.0,-0.13,0.13,0.92,0.34,0.2,2.06,0.07,-4.89,-3.83,1.33,0.0,0.0,0.0,-3.16,1.41,9.17
1738247958.3192055,67769,0,0,,0.0,-0.14,0.14,0.92,0.33,0.82,1.81,0.49,-5.31,-4.2,16.47,0.0,0.0,0.0,-3.46,1.55,9.04
1738247958.336905,67770,0,0,,0.0,-0.15,0.14,0.92,0.33,-0.28,1.56,-0.19,-8.46,-4.77,14.86,0.0,0.0,0.0,-3.69,1.54,8.94
1738247958.352556,67771,0,0,,0.0,-0.16,0.15,0.92,0.33,0.44,0.88,0.09,-7.7,5.08,13.01,0.0,0.0,0.0,-3.77,1.58,8.91
1738247958.3692024,67772,0,0,,0.0,-0.16,0.15,0.92,0.33,0.22,0.85,0.08,-2.59,2.53,6.92,0.0,0.0,0.0,-3.89,1.61,8.85
1738247958.3871057,67773,0,0,,0.0,-0.17,0.15,0.92,0.33,-0.12,0.65,-0.1,-5.2,1.4,8.32,0.0,0.0,0.0,-4.0,1.58,8.8
1738247958.4022443,67774,0,0,,0.0,-0.17,0.15,0.92,0.33,-0.27,0.55,-0.2,-3.76,2.48,9.86,0.0,0.0,0.0,-4.05,1.54,8.79
1738247958.4193068,67775,0,0,,0.0,-0.18,0.15,0.91,0.33,-0.31,0.49,-0.21,-4.93,0.21,8.31,0.0,0.0,0.0,-4.14,1.48,8.76
1738247958.4372928,67776,0,0,,0.0,-0.18,0.15,0.91,0.33,-0.28,0.51,-0.18,-5.29,-0.25,9.41,0.0,0.0,0.0,-4.23,1.42,8.72
1738247958.4522607,67777,0,0,,0.0,-0.18,0.15,0.91,0.33,-0.06,0.38,-0.08,-5.15,1.62,9.1,0.0,0.0,0.0,-4.27,1.41,8.71
1738247958.4697883,67778,0,0,,0.0,-0.19,0.15,0.91,0.33,0.02,0.32,-0.02,-5.4,2.02,8.88,0.0,0.0,0.0,-4.32,1.42,8.68
1738247958.4871018,67779,0,0,,0.0,-0.19,0.15,0.91,0.33,0.11,0.21,0.03,-4.75,1.44,9.03,0.0,0.0,0.0,-4.35,1.44,8.66
1738247958.502129,67780,0,0,,0.0,-0.19,0.15,0.91,0.33,0.13,0.14,0.06,-5.19,1.43,8.86,0.0,0.0,0.0,-4.36,1.46,8.65
1738247958.5197725,67781,0,0,,0.0,-0.19,0.15,0.91,0.33,0.13,0.07,0.07,-4.36,1.95,8.75,0.0,0.0,0.0,-4.36,1.49,8.65
1738247958.5364757,67782,0,0,,0.0,-0.19,0.15,0.91,0.33,0.12,0.02,0.07,-5.04,1.35,8.39,0.0,0.0,0.0,-4.36,1.51,8.64
1738247958.5520966,67783,0,0,,0.0,-0.19,0.15,0.91,0.33,0.13,-0.01,0.07,-4.0,1.97,8.6,0.0,0.0,0.0,-4.36,1.53,8.64
1738247958.5697715,67784,0,0,,0.0,-0.19,0.16,0.91,0.33,0.12,-0.02,0.07,-3.98,1.88,8.62,0.0,0.0,0.0,-4.36,1.55,8.64
1738247958.5867374,67785,0,0,,0.0,-0.19,0.16,0.91,0.33,0.08,0.09,0.04,-4.84,1.62,8.55,0.0,0.0,0.0,-4.38,1.57,8.63
1738247958.601661,67786,0,0,,0.0,-0.19,0.16,0.91,0.33,0.04,0.09,0.02,-4.54,1.79,8.41,0.0,0.0,0.0,-4.38,1.57,8.62
1738247958.6198003,67787,0,0,,0.0,-0.19,0.16,0.91,0.33,0.02,0.13,-0.0,-4.45,2.09,8.54,0.0,0.0,0.0,-4.4,1.57,8.61
1738247958.6371095,67788,0,0,,0.0,-0.19,0.16,0.91,0.33,-0.01,0.08,-0.01,-4.48,1.59,8.5,0.0,0.0,0.0,-4.42,1.57,8.61
1738247958.652732,67789,0,0,,0.0,-0.19,0.16,0.91,0.33,0.0,0.08,-0.01,-4.91,1.56,8.44,0.0,0.0,0.0,-4.42,1.57,8.6
1738247958.6694613,67790,0,0,,0.0,-0.19,0.16,0.91,0.33,0.01,0.08,-0.01,-4.4,1.51,8.68,0.0,0.0,0.0,-4.43,1.57,8.6
1738247958.687095,67791,0,0,,0.0,-0.19,0.16,0.91,0.33,0.05,0.03,0.0,-4.42,1.54,8.66,0.0,0.0,0.0,-4.44,1.58,8.59
1738247958.7026675,67792,0,0,,0.0,-0.19,0.16,0.91,0.33,0.08,0.03,0.03,-5.29,1.5,8.4,0.0,0.0,0.0,-4.44,1.59,8.59
1738247958.7196436,67793,0,0,,0.0,-0.19,0.16,0.91,0.33,0.09,0.01,0.04,-4.14,1.98,8.77,0.0,0.0,0.0,-4.44,1.61,8.58
1738247958.7372088,67794,0,0,,0.0,-0.19,0.16,0.91,0.33,0.09,0.01,0.04,-4.94,1.49,8.38,0.0,0.0,0.0,-4.44,1.63,8.58
1738247958.7523067,67795,0,0,,0.0,-0.19,0.16,0.91,0.33,0.08,0.02,0.03,-4.53,1.61,8.62,0.0,0.0,0.0,-4.45,1.64,8.58
1738247958.7699995,67796,0,0,,0.0,-0.19,0.16,0.91,0.33,0.08,0.02,0.03,-5.16,1.65,8.41,0.0,0.0,0.0,-4.45,1.65,8.57
1738247958.7872872,67797,0,0,,0.0,-0.19,0.16,0.91,0.33,0.06,0.03,0.01,-4.42,2.15,8.48,0.0,0.0,0.0,-4.45,1.66,8.57
1738247958.8026674,67798,0,0,,0.0,-0.19,0.16,0.91,0.33,0.05,0.03,-0.01,-4.95,1.79,8.57,0.0,0.0,0.0,-4.46,1.67,8.57
1738247958.820442,67799,0,0,,0.0,-0.19,0.16,0.91,0.33,0.05,0.03,-0.02,-4.46,2.08,8.59,0.0,0.0,0.0,-4.47,1.68,8.56
1738247958.8376505,67800,0,0,,0.0,-0.19,0.16,0.91,0.33,0.04,0.03,-0.03,-3.92,2.01,8.63,0.0,0.0,0.0,-4.48,1.68,8.55
1738247958.8532004,67801,0,0,,0.0,-0.19,0.16,0.91,0.33,0.03,0.06,-0.05,-5.21,1.36,8.11,0.0,0.0,0.0,-4.49,1.68,8.55
1738247958.8701217,67802,0,0,,0.0,-0.19,0.17,0.91,0.33,0.03,0.1,-0.06,-4.2,1.97,8.68,0.0,0.0,0.0,-4.51,1.69,8.53
1738247958.8874853,67803,0,0,,0.0,-0.19,0.17,0.91,0.33,0.03,0.15,-0.07,-4.95,1.65,8.28,0.0,0.0,0.0,-4.54,1.68,8.52
1738247958.9033968,67804,0,0,,0.0,-0.2,0.17,0.91,0.33,0.03,0.23,-0.1,-3.89,2.01,8.57,0.0,0.0,0.0,-4.56,1.68,8.51
1738247958.9201314,67805,0,0,,0.0,-0.2,0.17,0.91,0.33,0.03,0.28,-0.11,-4.67,1.88,8.33,0.0,0.0,0.0,-4.62,1.67,8.48
1738247958.9375238,67806,0,0,,0.0,-0.2,0.17,0.91,0.33,0.04,0.42,-0.15,-5.29,1.52,8.4,0.0,0.0,0.0,-4.7,1.67,8.44
1738247958.9537885,67807,0,0,,0.0,-0.21,0.17,0.9,0.33,0.04,0.55,-0.18,-4.28,1.96,8.71,0.0,0.0,0.0,-4.74,1.66,8.41
1738247958.970623,67808,0,0,,0.0,-0.21,0.17,0.9,0.33,0.05,0.64,-0.19,-5.71,1.59,8.2,0.0,0.0,0.0,-4.86,1.66,8.35
1738247958.9874218,67809,0,0,,0.0,-0.22,0.17,0.9,0.33,0.04,0.81,-0.22,-4.84,1.88,8.2,0.0,0.0,0.0,-5.0,1.64,8.27
1738247959.003982,67810,0,0,,0.0,-0.22,0.18,0.9,0.33,0.04,0.94,-0.23,-5.07,1.81,8.12,0.0,0.0,0.0,-5.07,1.64,8.22
1738247959.0204437,67811,0,0,,0.0,-0.23,0.18,0.9,0.33,0.03,1.02,-0.24,-5.17,1.88,8.24,0.0,0.0,0.0,-5.25,1.61,8.12
1738247959.03772,67812,0,0,,0.0,-0.24,0.18,0.89,0.34,-0.01,1.16,-0.28,-4.72,1.8,7.74,0.0,0.0,0.0,-5.45,1.58,7.99
1738247959.0539136,67813,0,0,,0.0,-0.25,0.18,0.89,0.34,-0.11,1.45,-0.37,-8.07,1.73,9.28,0.0,0.0,0.0,-5.57,1.55,7.91
1738247959.0709987,67814,0,0,,0.0,-0.27,0.19,0.88,0.34,-0.17,1.58,-0.38,-3.6,2.12,7.46,0.0,0.0,0.0,-5.82,1.48,7.74
1738247959.08799,67815,0,0,,0.0,-0.28,0.19,0.88,0.34,-0.24,1.83,-0.52,-6.55,1.94,8.57,0.0,0.0,0.0,-6.12,1.37,7.53
1738247959.1045895,67816,0,0,,0.0,-0.29,0.19,0.87,0.34,-0.38,2.24,-0.6,-4.87,1.29,7.16,0.0,0.0,0.0,-6.29,1.31,7.4
1738247959.1207614,67817,0,0,,0.0,-0.32,0.19,0.87,0.34,-0.38,2.32,-0.64,-6.01,1.64,7.18,0.0,0.0,0.0,-6.65,1.17,7.1
1738247959.138145,67818,0,0,,0.0,-0.34,0.2,0.86,0.34,-0.43,2.58,-0.7,-5.85,1.15,6.63,0.0,0.0,0.0,-7.02,1.01,6.76
1738247959.1546504,67819,0,0,,0.0,-0.36,0.2,0.85,0.34,-0.4,2.95,-0.81,-6.73,1.33,6.49,0.0,0.0,0.0,-7.22,0.93,6.56
1738247959.1714141,67820,0,0,,0.0,-0.39,0.2,0.84,0.33,-0.42,3.18,-0.9,-6.62,2.47,7.81,0.0,0.0,0.0,-7.65,0.74,6.08
1738247959.1882396,67821,0,0,,0.0,-0.43,0.2,0.82,0.33,-0.72,3.99,-1.07,-7.46,2.06,9.05,0.0,0.0,0.0,-8.14,0.47,5.44
1738247959.204884,67822,0,0,,0.0,-0.45,0.2,0.8,0.33,-1.0,5.18,-1.49,-11.47,2.1,10.51,0.0,0.0,0.0,-8.41,0.31,5.03
1738247959.221368,67823,0,0,,0.0,-0.5,0.21,0.77,0.33,-1.03,6.08,-1.88,-11.21,1.86,10.9,0.0,0.0,0.0,-8.93,-0.06,4.04
1738247959.2387102,67824,0,0,,0.0,-0.56,0.21,0.73,0.33,-0.91,6.49,-2.14,-11.79,3.56,12.44,0.0,0.0,0.0,-9.36,-0.51,2.86
1738247959.2559135,67825,0,0,,0.0,-0.58,0.21,0.71,0.33,-0.5,6.98,-2.27,-13.34,1.55,15.54,0.0,0.0,0.0,-9.52,-0.73,2.22
1738247959.2711213,67826,0,0,,0.0,-0.63,0.22,0.67,0.33,0.37,5.25,-1.46,-16.46,8.53,15.86,0.0,0.0,0.0,-9.68,-1.06,1.1
1738247959.2885716,67827,0,0,,0.0,-0.64,0.22,0.66,0.33,0.28,2.85,-0.91,-14.16,10.64,18.65,0.0,0.0,0.0,-9.7,-1.21,0.75
1738247959.3054066,67828,0,0,,0.0,-0.64,0.22,0.66,0.32,-1.05,0.23,-0.52,-4.25,2.96,10.07,0.0,0.0,0.0,-9.69,-1.27,0.71
1738247959.32145,67829,0,0,,0.0,-0.65,0.21,0.66,0.32,-0.49,-0.16,-0.71,-4.06,-0.93,9.19,0.0,0.0,0.0,-9.68,-1.39,0.69
1738247959.3389146,67830,0,0,,0.0,-0.65,0.2,0.66,0.33,0.07,-0.51,-0.87,-4.31,0.12,9.37,0.0,0.0,0.0,-9.64,-1.57,0.82
1738247959.3561704,67831,0,0,,0.0,-0.64,0.2,0.66,0.34,0.37,-1.32,-1.16,-3.2,1.94,8.62,0.0,0.0,0.0,-9.61,-1.68,0.95
1738247959.3713522,67832,0,0,,0.0,-0.63,0.19,0.67,0.35,0.57,-2.25,-0.88,-1.88,2.35,7.05,0.0,0.0,0.0,-9.53,-1.85,1.34
1738247959.3887477,67833,0,0,,0.0,-0.61,0.18,0.68,0.36,0.64,-2.54,-0.63,-2.18,1.97,7.14,0.0,0.0,0.0,-9.43,-1.91,1.86
1738247959.4055946,67834,0,0,,0.0,-0.6,0.18,0.69,0.37,0.74,-3.15,-0.05,-3.32,1.19,7.52,0.0,0.0,0.0,-9.37,-1.9,2.16
1738247959.4214683,67835,0,0,,0.0,-0.57,0.17,0.71,0.38,0.6,-3.79,0.22,-4.13,-0.08,7.45,0.0,0.0,0.0,-9.2,-1.84,2.84
1738247959.4390523,67836,0,0,,0.0,-0.54,0.16,0.73,0.38,0.6,-4.09,0.27,-4.35,0.2,6.96,0.0,0.0,0.0,-8.95,-1.75,3.6
1738247959.456142,67837,0,0,,0.0,-0.52,0.16,0.74,0.39,0.67,-4.49,0.47,-4.89,-0.43,6.86,0.0,0.0,0.0,-8.79,-1.68,4.0
1738247959.4714568,67838,0,0,,0.0,-0.48,0.15,0.77,0.39,0.89,-4.75,0.71,-7.05,-0.11,7.77,0.0,0.0,0.0,-8.41,-1.5,4.8
1738247959.4891102,67839,0,0,,0.0,-0.44,0.14,0.79,0.4,0.91,-4.9,0.78,-7.67,0.79,7.98,0.0,0.0,0.0,-7.93,-1.28,5.61
1738247959.5060425,67840,0,0,,0.0,-0.42,0.14,0.8,0.4,0.81,-5.05,1.22,-8.53,2.34,7.34,0.0,0.0,0.0,-7.66,-1.14,6.0
1738247959.5217545,67841,0,0,,0.0,-0.37,0.13,0.83,0.39,0.74,-4.88,1.95,-9.93,1.58,7.96,0.0,0.0,0.0,-7.09,-0.8,6.72
1738247959.5396848,67842,0,0,,0.0,-0.33,0.13,0.85,0.38,0.74,-4.74,2.22,-10.26,0.8,7.76,0.0,0.0,0.0,-6.48,-0.39,7.34
1738247959.5570724,67843,0,0,,0.0,-0.31,0.12,0.86,0.38,0.8,-4.28,2.42,-13.12,-0.81,11.21,0.0,0.0,0.0,-6.18,-0.19,7.6
1738247959.5718176,67844,0,0,,0.0,-0.27,0.13,0.88,0.36,1.02,-4.09,2.5,-14.78,-1.44,11.39,0.0,0.0,0.0,-5.56,0.23,8.07
1738247959.589174,67845,0,0,,0.0,-0.23,0.13,0.9,0.35,0.97,-4.09,2.35,-15.89,-2.95,11.5,0.0,0.0,0.0,-4.9,0.62,8.47
1738247959.6073453,67846,0,0,,0.0,-0.21,0.12,0.91,0.35,0.95,-3.96,1.93,-17.03,-2.24,11.39,0.0,0.0,0.0,-4.55,0.78,8.64
1738247959.6226633,67847,0,0,,0.0,-0.17,0.12,0.92,0.34,0.95,-3.98,1.35,-15.8,-6.15,8.28,0.0,0.0,0.0,-3.85,1.06,8.95
1738247959.640096,67848,0,0,,0.0,-0.13,0.12,0.92,0.34,1.1,-3.9,0.89,-15.1,-5.92,6.98,0.0,0.0,0.0,-3.16,1.31,9.18
1738247959.657868,67849,0,0,,0.0,-0.11,0.12,0.92,0.34,1.26,-3.44,-0.1,-13.47,-3.43,3.92,0.0,0.0,0.0,-2.86,1.42,9.27
1738247959.6732883,67850,0,0,,0.0,-0.08,0.12,0.92,0.35,1.13,-2.54,-0.53,-12.95,0.04,1.84,0.0,0.0,0.0,-2.37,1.61,9.37
1738247959.6902285,67851,0,0,,0.0,-0.06,0.12,0.92,0.36,1.07,-2.05,-0.49,-13.74,0.1,2.07,0.0,0.0,0.0,-2.04,1.78,9.42
1738247959.707938,67852,0,0,,0.0,-0.06,0.13,0.92,0.36,0.92,-1.3,-0.15,-14.3,-1.44,0.24,0.0,0.0,0.0,-1.93,1.86,9.43
1738247959.724265,67853,0,0,,0.0,-0.05,0.13,0.92,0.36,0.42,-0.61,-0.01,-16.4,-2.3,0.16,0.0,0.0,0.0,-1.79,1.96,9.43
1738247959.7411795,67854,0,0,,0.0,-0.05,0.13,0.92,0.36,0.16,-0.4,0.08,-14.01,-2.61,-2.8,0.0,0.0,0.0,-1.74,1.96,9.44
1738247959.7591214,67855,0,0,,0.0,-0.05,0.13,0.92,0.36,-0.42,0.39,0.07,-13.91,-1.9,-2.1,0.0,0.0,0.0,-1.78,1.93,9.44
1738247959.7747,67856,0,0,,0.0,-0.06,0.12,0.92,0.36,-0.79,1.15,0.26,-12.01,0.04,3.27,0.0,0.0,0.0,-1.95,1.81,9.43
1738247959.7912009,67857,0,0,,0.0,-0.07,0.12,0.93,0.35,-0.97,1.28,0.4,-0.09,-0.64,8.16,0.0,0.0,0.0,-2.17,1.66,9.41
1738247959.8090093,67858,0,0,,0.0,-0.08,0.12,0.93,0.35,-0.27,1.1,0.37,25.99,2.29,22.45,0.0,0.0,0.0,-2.26,1.64,9.39
1738247959.8255339,67859,0,0,,0.0,-0.11,0.13,0.92,0.35,-0.99,3.19,-0.34,-8.88,-13.28,0.26,0.0,0.0,0.0,-2.77,1.53,9.27
1738247959.841347,67860,0,0,,0.0,-0.12,0.14,0.92,0.35,-0.03,2.53,-0.2,-11.28,9.33,2.39,0.0,0.0,0.0,-3.17,1.6,9.13
1738247959.8593273,67861,0,0,,0.0,-0.13,0.14,0.92,0.35,-0.16,1.96,0.25,-5.63,-4.99,18.48,0.0,0.0,0.0,-3.34,1.6,9.07
1738247959.8748329,67862,0,0,,0.0,-0.15,0.14,0.92,0.34,0.28,1.23,0.08,-5.34,2.06,7.93,0.0,0.0,0.0,-3.6,1.6,8.97
1738247959.891743,67863,0,0,,0.0,-0.15,0.15,0.91,0.34,0.46,1.01,0.17,-5.24,4.17,7.63,0.0,0.0,0.0,-3.76,1.66,8.89
1738247959.9092338,67864,0,0,,0.0,-0.16,0.15,0.91,0.34,-0.0,0.73,-0.01,-3.83,1.96,8.27,0.0,0.0,0.0,-3.83,1.66,8.87
1738247959.9258037,67865,0,0,,0.0,-0.16,0.15,0.91,0.34,-0.29,0.7,-0.15,-4.67,1.53,8.7,0.0,0.0,0.0,-3.95,1.61,8.82
1738247959.9417562,67866,0,0,,0.0,-0.17,0.15,0.91,0.34,-0.29,0.61,-0.15,-3.78,2.2,8.56,0.0,0.0,0.0,-4.05,1.55,8.79
1738247959.959114,67867,0,0,,0.0,-0.17,0.15,0.91,0.34,-0.27,0.54,-0.17,-6.12,1.79,8.46,0.0,0.0,0.0,-4.1,1.52,8.77
1738247959.9755752,67868,0,0,,0.0,-0.18,0.15,0.91,0.34,-0.17,0.42,-0.1,-5.16,1.48,9.45,0.0,0.0,0.0,-4.18,1.47,8.74
1738247959.991599,67869,0,0,,0.0,-0.18,0.15,0.91,0.34,-0.03,0.29,-0.02,-4.75,1.84,9.37,0.0,0.0,0.0,-4.22,1.47,8.72
1738247960.0090117,67870,0,0,,0.0,-0.18,0.15,0.91,0.34,0.06,0.23,0.03,-5.11,1.53,9.06,0.0,0.0,0.0,-4.24,1.48,8.71
1738247960.0250962,67871,0,0,,0.0,-0.18,0.15,0.91,0.34,0.11,0.11,0.06,-4.89,1.83,8.46,0.0,0.0,0.0,-4.26,1.5,8.69
1738247960.0419643,67872,0,0,,0.0,-0.18,0.15,0.91,0.34,0.09,0.11,0.05,-4.42,2.02,8.61,0.0,0.0,0.0,-4.28,1.52,8.68
1738247960.059139,67873,0,0,,0.0,-0.18,0.15,0.91,0.34,0.07,0.05,0.03,-4.15,1.78,8.8,0.0,0.0,0.0,-4.28,1.52,8.68
1738247960.0747094,67874,0,0,,0.0,-0.18,0.15,0.91,0.34,0.02,0.09,-0.0,-4.63,1.61,8.45,0.0,0.0,0.0,-4.3,1.53,8.67
1738247960.0914848,67875,0,0,,0.0,-0.18,0.15,0.91,0.34,0.01,0.1,-0.01,-4.24,1.73,8.83,0.0,0.0,0.0,-4.31,1.53,8.67
1738247960.1089263,67876,0,0,,0.0,-0.18,0.15,0.91,0.34,-0.0,0.09,-0.02,-4.8,1.47,8.42,0.0,0.0,0.0,-4.32,1.53,8.66
1738247960.1244318,67877,0,0,,0.0,-0.19,0.16,0.91,0.34,-0.03,0.09,-0.03,-4.08,1.92,8.69,0.0,0.0,0.0,-4.34,1.53,8.65
1738247960.1413505,67878,0,0,,0.0,-0.19,0.16,0.91,0.34,-0.03,0.06,-0.02,-4.07,1.7,8.54,0.0,0.0,0.0,-4.36,1.52,8.64
1738247960.1589415,67879,0,0,,0.0,-0.19,0.16,0.91,0.34,-0.01,0.08,-0.02,-4.78,1.69,8.31,0.0,0.0,0.0,-4.37,1.52,8.64
1738247960.1740723,67880,0,0,,0.0,-0.19,0.16,0.91,0.34,0.01,-0.0,-0.02,-4.34,1.46,8.59,0.0,0.0,0.0,-4.37,1.52,8.64
1738247960.191209,67881,0,0,,0.0,-0.19,0.16,0.91,0.34,0.01,0.01,-0.02,-4.67,1.43,8.48,0.0,0.0,0.0,-4.38,1.53,8.63
1738247960.2091122,67882,0,0,,0.0,-0.19,0.16,0.91,0.34,0.05,0.01,-0.0,-4.24,1.54,8.77,0.0,0.0,0.0,-4.38,1.53,8.63
1738247960.2232337,67883,0,0,,0.0,-0.19,0.16,0.91,0.34,0.08,0.0,0.02,-4.69,1.61,8.3,0.0,0.0,0.0,-4.38,1.54,8.63
1738247960.2409904,67884,0,0,,0.0,-0.19,0.16,0.91,0.34,0.08,0.02,0.03,-4.95,1.47,8.52,0.0,0.0,0.0,-4.38,1.56,8.62
1738247960.2583058,67885,0,0,,0.0,-0.19,0.16,0.91,0.34,0.09,-0.0,0.04,-4.48,1.65,8.52,0.0,0.0,0.0,-4.38,1.57,8.62
1738247960.2729135,67886,0,0,,0.0,-0.19,0.16,0.91,0.34,0.09,0.04,0.04,-4.91,1.36,8.48,0.0,0.0,0.0,-4.39,1.59,8.62
1738247960.2908797,67887,0,0,,0.0,-0.19,0.16,0.91,0.34,0.09,0.03,0.04,-4.11,1.72,8.77,0.0,0.0,0.0,-4.39,1.6,8.61
1738247960.3078194,67888,0,0,,0.0,-0.19,0.16,0.91,0.34,0.09,0.03,0.02,-4.73,2.05,8.42,0.0,0.0,0.0,-4.4,1.62,8.61
1738247960.3234248,67889,0,0,,0.0,-0.19,0.16,0.91,0.34,0.07,0.02,0.0,-4.08,2.11,8.76,0.0,0.0,0.0,-4.4,1.63,8.6
1738247960.340952,67890,0,0,,0.0,-0.19,0.16,0.91,0.34,0.07,0.0,-0.0,-4.1,1.8,8.62,0.0,0.0,0.0,-4.4,1.64,8.6
1738247960.3587515,67891,0,0,,0.0,-0.19,0.16,0.91,0.34,0.05,0.03,-0.02,-4.7,1.78,8.45,0.0,0.0,0.0,-4.4,1.65,8.6
1738247960.3729172,67892,0,0,,0.0,-0.19,0.16,0.91,0.34,0.06,0.03,-0.01,-4.62,1.6,8.43,0.0,0.0,0.0,-4.41,1.66,8.59
1738247960.3909976,67893,0,0,,0.0,-0.19,0.16,0.91,0.34,0.05,0.05,-0.02,-4.42,2.05,8.53,0.0,0.0,0.0,-4.41,1.66,8.59
1738247960.4085288,67894,0,0,,0.0,-0.19,0.16,0.91,0.34,0.05,0.07,-0.03,-4.44,1.94,8.68,0.0,0.0,0.0,-4.43,1.67,8.58
1738247960.4228199,67895,0,0,,0.0,-0.19,0.17,0.91,0.34,0.04,0.11,-0.05,-4.86,1.9,8.32,0.0,0.0,0.0,-4.45,1.68,8.57
1738247960.4413521,67896,0,0,,0.0,-0.19,0.17,0.91,0.34,0.05,0.14,-0.07,-4.15,1.98,8.56,0.0,0.0,0.0,-4.46,1.68,8.56
1738247960.4586105,67897,0,0,,0.0,-0.19,0.17,0.91,0.34,0.04,0.21,-0.08,-5.09,1.69,8.25,0.0,0.0,0.0,-4.49,1.68,8.54
1738247960.4735045,67898,0,0,,0.0,-0.19,0.17,0.9,0.34,0.03,0.32,-0.13,-4.54,1.7,8.42,0.0,0.0,0.0,-4.55,1.68,8.52
1738247960.4910803,67899,0,0,,0.0,-0.2,0.17,0.9,0.34,0.03,0.4,-0.15,-4.05,1.98,8.84,0.0,0.0,0.0,-4.58,1.68,8.5
1738247960.5088606,67900,0,0,,0.0,-0.2,0.17,0.9,0.34,0.03,0.55,-0.16,-4.3,1.93,8.45,0.0,0.0,0.0,-4.67,1.67,8.45
1738247960.523437,67901,0,0,,0.0,-0.21,0.17,0.9,0.34,0.04,0.74,-0.17,-4.33,1.63,8.63,0.0,0.0,0.0,-4.79,1.66,8.39
1738247960.5412166,67902,0,0,,0.0,-0.21,0.18,0.9,0.34,0.04,0.83,-0.18,-4.99,1.66,8.15,0.0,0.0,0.0,-4.86,1.65,8.35
1738247960.5591502,67903,0,0,,0.0,-0.22,0.18,0.9,0.34,0.01,1.14,-0.26,-6.44,2.36,10.51,0.0,0.0,0.0,-5.03,1.63,8.25
1738247960.5736258,67904,0,0,,0.0,-0.23,0.18,0.89,0.34,-0.04,1.33,-0.3,-3.47,1.9,7.57,0.0,0.0,0.0,-5.25,1.6,8.12
1738247960.5914733,67905,0,0,,0.0,-0.25,0.18,0.89,0.34,-0.1,1.55,-0.41,-6.19,1.75,8.4,0.0,0.0,0.0,-5.37,1.57,8.04
1738247960.6090803,67906,0,0,,0.0,-0.26,0.19,0.88,0.34,-0.23,1.93,-0.55,-5.05,1.37,7.82,0.0,0.0,0.0,-5.68,1.48,7.85
1738247960.6242151,67907,0,0,,0.0,-0.28,0.19,0.88,0.34,-0.29,2.25,-0.61,-6.07,1.97,7.39,0.0,0.0,0.0,-6.01,1.37,7.61
1738247960.6416807,67908,0,0,,0.0,-0.3,0.19,0.87,0.34,-0.34,2.41,-0.64,-5.28,1.54,7.39,0.0,0.0,0.0,-6.4,1.24,7.32
1738247960.6596265,67909,0,0,,0.0,-0.31,0.19,0.86,0.34,-0.47,2.78,-0.77,-6.61,1.77,7.5,0.0,0.0,0.0,-6.6,1.16,7.15
1738247960.6738918,67910,0,0,,0.0,-0.34,0.2,0.85,0.34,-0.55,3.13,-0.94,-5.79,2.33,7.65,0.0,0.0,0.0,-7.03,0.97,6.76
1738247960.691828,67911,0,0,,0.0,-0.38,0.2,0.84,0.34,-0.57,3.38,-1.05,-5.86,2.43,8.2,0.0,0.0,0.0,-7.26,0.86,6.53
1738247960.7096186,67912,0,0,,0.0,-0.4,0.2,0.83,0.34,-0.87,4.34,-1.35,-9.89,-0.38,10.47,0.0,0.0,0.0,-7.76,0.58,5.95
1738247960.724866,67913,0,0,,0.0,-0.44,0.21,0.8,0.34,-0.58,5.96,-1.62,-11.32,2.04,13.51,0.0,0.0,0.0,-8.38,0.26,5.08
1738247960.7422366,67914,0,0,,0.0,-0.5,0.21,0.77,0.34,-0.7,6.47,-1.74,-11.42,3.53,13.28,0.0,0.0,0.0,-8.97,-0.12,3.95
1738247960.7604482,67915,0,0,,0.0,-0.53,0.22,0.75,0.34,-0.94,7.25,-2.2,-12.9,4.42,15.96,0.0,0.0,0.0,-9.22,-0.35,3.31
1738247960.774658,67916,0,0,,0.0,-0.59,0.22,0.7,0.33,-0.57,6.85,-2.05,-18.65,0.21,20.99,0.0,0.0,0.0,-9.56,-0.77,2.01
1738247960.7923076,67917,0,0,,0.0,-0.62,0.23,0.68,0.33,-0.28,4.62,-1.44,-15.52,9.39,18.72,0.0,0.0,0.0,-9.63,-0.91,1.58
1738247960.8091912,67918,0,0,,0.0,-0.62,0.22,0.68,0.33,-0.7,0.61,-0.58,-1.09,7.18,12.54,0.0,0.0,0.0,-9.66,-1.08,1.29
1738247960.824399,67919,0,0,,0.0,-0.63,0.22,0.67,0.33,-0.72,0.39,-0.36,-4.16,-0.59,11.22,0.0,0.0,0.0,-9.66,-1.16,1.19
1738247960.84201,67920,0,0,,0.0,-0.63,0.21,0.67,0.33,-0.02,-0.09,-0.53,-4.12,1.11,11.69,0.0,0.0,0.0,-9.65,-1.21,1.2
1738247960.8595667,67921,0,0,,0.0,-0.62,0.21,0.68,0.34,0.13,-1.11,-0.98,-2.31,1.29,9.2,0.0,0.0,0.0,-9.61,-1.37,1.36
1738247960.8740273,67922,0,0,,0.0,-0.61,0.2,0.68,0.35,0.33,-2.07,-0.97,-1.52,2.51,7.82,0.0,0.0,0.0,-9.52,-1.55,1.71
