Time,header.seq,header.stamp.secs,header.stamp.nsecs,header.frame_id,time_stamp,quat_x,quat_y,quat_z,quat_w,gyro_x,gyro_y,gyro_z,accel_x,accel_y,accel_z,euler_x,euler_y,euler_z,gravity_x,gravity_y,gravity_z
1738247943.440222,66878,0,0,,0.0,-0.62,0.23,0.73,0.18,0.35,0.6,0.02,-9.82,0.92,0.84,0.0,0.0,0.0,-9.67,1.06,1.15
1738247943.4587195,66879,0,0,,0.0,-0.63,0.23,0.72,0.18,0.28,0.62,0.03,-10.07,0.87,1.02,0.0,0.0,0.0,-9.68,1.06,1.09
1738247943.4731128,66880,0,0,,0.0,-0.63,0.23,0.72,0.18,0.17,0.61,0.04,-9.83,1.09,0.68,0.0,0.0,0.0,-9.69,1.07,0.98
1738247943.4910214,66881,0,0,,0.0,-0.63,0.24,0.72,0.18,0.16,0.62,0.03,-9.86,1.04,0.97,0.0,0.0,0.0,-9.7,1.08,0.86
1738247943.5087,66882,0,0,,0.0,-0.63,0.24,0.71,0.18,0.2,0.59,0.02,-9.8,1.06,1.05,0.0,0.0,0.0,-9.71,1.09,0.8
1738247943.5242271,66883,0,0,,0.0,-0.64,0.24,0.71,0.18,0.26,0.63,0.01,-9.46,1.46,0.33,0.0,0.0,0.0,-9.72,1.09,0.68
1738247943.5419738,66884,0,0,,0.0,-0.64,0.24,0.7,0.18,0.27,0.64,0.0,-9.74,1.46,0.47,0.0,0.0,0.0,-9.72,1.1,0.55
1738247943.5591445,66885,0,0,,0.0,-0.65,0.25,0.7,0.18,0.26,0.64,-0.01,-9.71,1.42,0.49,0.0,0.0,0.0,-9.73,1.1,0.49
1738247943.5740445,66886,0,0,,0.0,-0.65,0.25,0.7,0.18,0.22,0.68,-0.02,-9.66,1.26,0.17,0.0,0.0,0.0,-9.73,1.1,0.36
1738247943.5914285,66887,0,0,,0.0,-0.65,0.25,0.69,0.18,0.22,0.69,-0.03,-9.57,1.3,-0.2,0.0,0.0,0.0,-9.74,1.09,0.22
1738247943.6089973,66888,0,0,,0.0,-0.66,0.25,0.69,0.18,0.21,0.73,-0.03,-9.58,1.2,-0.25,0.0,0.0,0.0,-9.74,1.09,0.15
1738247943.6237934,66889,0,0,,0.0,-0.66,0.25,0.68,0.18,0.23,0.75,-0.04,-9.72,1.21,-0.23,0.0,0.0,0.0,-9.74,1.08,0.01
1738247943.641534,66890,0,0,,0.0,-0.66,0.26,0.68,0.18,0.24,0.78,-0.04,-9.71,1.1,-0.71,0.0,0.0,0.0,-9.74,1.07,-0.14
1738247943.65896,66891,0,0,,0.0,-0.67,0.26,0.68,0.18,0.32,0.86,-0.06,-10.21,0.99,0.45,0.0,0.0,0.0,-9.74,1.07,-0.22
1738247943.675223,66892,0,0,,0.0,-0.67,0.26,0.67,0.18,0.35,0.87,-0.06,-9.69,1.39,-0.53,0.0,0.0,0.0,-9.74,1.05,-0.39
1738247943.6918514,66893,0,0,,0.0,-0.68,0.26,0.66,0.18,0.34,0.94,-0.07,-10.44,0.99,-0.21,0.0,0.0,0.0,-9.73,1.04,-0.58
1738247943.7094429,66894,0,0,,0.0,-0.68,0.27,0.65,0.18,0.4,1.0,-0.08,-10.45,1.01,-0.28,0.0,0.0,0.0,-9.72,1.03,-0.68
1738247943.7239168,66895,0,0,,0.0,-0.69,0.27,0.65,0.18,0.47,1.09,-0.09,-10.61,0.84,-0.35,0.0,0.0,0.0,-9.71,1.0,-0.89
1738247943.7421653,66896,0,0,,0.0,-0.69,0.27,0.64,0.18,0.49,1.14,-0.1,-10.62,0.86,-0.77,0.0,0.0,0.0,-9.69,0.97,-1.11
1738247943.759647,66897,0,0,,0.0,-0.7,0.28,0.63,0.18,0.45,1.25,-0.13,-10.57,0.71,-0.99,0.0,0.0,0.0,-9.68,0.95,-1.24
1738247943.7743368,66898,0,0,,0.0,-0.71,0.28,0.63,0.18,0.35,1.35,-0.2,-10.83,0.54,-0.4,0.0,0.0,0.0,-9.64,0.91,-1.49
1738247943.7922342,66899,0,0,,0.0,-0.71,0.28,0.61,0.18,0.29,1.4,-0.22,-11.11,0.4,-0.55,0.0,0.0,0.0,-9.6,0.86,-1.76
1738247943.8092022,66900,0,0,,0.0,-0.72,0.28,0.61,0.18,0.24,1.52,-0.32,-11.03,1.15,-1.3,0.0,0.0,0.0,-9.58,0.82,-1.91
1738247943.8253007,66901,0,0,,0.0,-0.73,0.28,0.6,0.18,0.03,1.62,-0.38,-11.92,1.07,-0.01,0.0,0.0,0.0,-9.52,0.75,-2.21
1738247943.8419194,66902,0,0,,0.0,-0.74,0.28,0.58,0.18,0.0,1.6,-0.39,-9.66,0.93,-2.46,0.0,0.0,0.0,-9.45,0.68,-2.51
1738247943.8600812,66903,0,0,,0.0,-0.75,0.28,0.57,0.18,0.01,1.79,-0.48,-10.17,0.76,-1.9,0.0,0.0,0.0,-9.41,0.63,-2.67
1738247943.8769345,66904,0,0,,0.0,-0.76,0.28,0.56,0.17,0.01,1.83,-0.55,-9.93,0.8,-1.69,0.0,0.0,0.0,-9.31,0.53,-3.0
1738247943.89292,66905,0,0,,0.0,-0.77,0.28,0.55,0.17,0.0,1.93,-0.59,-10.07,-0.25,-0.52,0.0,0.0,0.0,-9.2,0.43,-3.34
1738247943.9101958,66906,0,0,,0.0,-0.78,0.28,0.53,0.17,0.02,2.0,-0.64,-9.75,-0.13,-0.65,0.0,0.0,0.0,-9.14,0.37,-3.52
1738247943.9270813,66907,0,0,,0.0,-0.79,0.28,0.52,0.17,0.41,2.42,-0.6,-10.42,-0.46,0.53,0.0,0.0,0.0,-8.98,0.25,-3.92
1738247943.9429836,66908,0,0,,0.0,-0.8,0.28,0.5,0.17,0.61,2.48,-0.52,-10.51,1.2,1.73,0.0,0.0,0.0,-8.79,0.11,-4.34
1738247943.9603117,66909,0,0,,0.0,-0.81,0.29,0.48,0.17,0.78,2.55,-0.36,-10.13,1.52,0.33,0.0,0.0,0.0,-8.68,0.04,-4.56
1738247943.9776351,66910,0,0,,0.0,-0.82,0.29,0.46,0.17,0.4,3.41,0.01,-13.21,2.77,-2.89,0.0,0.0,0.0,-8.39,-0.02,-5.07
1738247943.9937155,66911,0,0,,0.0,-0.83,0.3,0.43,0.16,0.15,3.56,0.05,-16.67,1.8,-1.49,0.0,0.0,0.0,-8.03,-0.05,-5.62
1738247944.0103726,66912,0,0,,0.0,-0.85,0.31,0.4,0.15,0.02,3.57,0.04,-16.89,1.42,-2.79,0.0,0.0,0.0,-7.62,-0.04,-6.16
1738247944.0280879,66913,0,0,,0.0,-0.85,0.31,0.39,0.14,0.29,3.38,0.14,-15.33,1.91,-2.84,0.0,0.0,0.0,-7.42,-0.05,-6.4
1738247944.0434356,66914,0,0,,0.0,-0.86,0.32,0.36,0.14,0.41,2.86,0.23,-12.31,1.9,0.57,0.0,0.0,0.0,-7.03,-0.08,-6.83
1738247944.0606945,66915,0,0,,0.0,-0.87,0.32,0.34,0.13,0.34,2.44,0.27,-11.9,2.05,0.67,0.0,0.0,0.0,-6.73,-0.08,-7.12
1738247944.0771883,66916,0,0,,0.0,-0.87,0.33,0.34,0.13,0.11,1.56,0.37,-10.48,0.5,-0.07,0.0,0.0,0.0,-6.62,-0.06,-7.22
1738247944.0934587,66917,0,0,,0.0,-0.87,0.33,0.33,0.13,0.05,0.85,0.34,-8.95,0.76,-0.97,0.0,0.0,0.0,-6.48,-0.03,-7.35
1738247944.110771,66918,0,0,,0.0,-0.87,0.33,0.33,0.13,0.05,0.45,0.33,-7.84,-0.49,-1.11,0.0,0.0,0.0,-6.44,0.0,-7.38
1738247944.127529,66919,0,0,,0.0,-0.87,0.34,0.33,0.13,0.12,-0.38,0.34,-6.65,-0.86,-1.38,0.0,0.0,0.0,-6.47,0.01,-7.36
1738247944.1441588,66920,0,0,,0.0,-0.87,0.34,0.34,0.13,0.25,-1.25,0.28,-5.48,-0.42,-1.49,0.0,0.0,0.0,-6.62,0.02,-7.23
1738247944.1609395,66921,0,0,,0.0,-0.86,0.34,0.35,0.14,0.25,-1.68,0.23,-5.24,-0.39,-1.6,0.0,0.0,0.0,-6.88,0.01,-6.98
1738247944.1776958,66922,0,0,,0.0,-0.86,0.34,0.36,0.14,0.19,-2.52,0.16,-5.48,-0.67,-1.91,0.0,0.0,0.0,-7.05,0.01,-6.81
1738247944.1939447,66923,0,0,,0.0,-0.84,0.33,0.39,0.15,0.13,-3.26,0.11,-5.8,-0.71,-2.2,0.0,0.0,0.0,-7.44,0.01,-6.38
1738247944.2106743,66924,0,0,,0.0,-0.83,0.33,0.42,0.16,0.07,-3.59,0.1,-6.16,-0.7,-2.33,0.0,0.0,0.0,-7.88,0.02,-5.82
1738247944.2274535,66925,0,0,,0.0,-0.82,0.33,0.44,0.17,-0.16,-4.2,0.05,-7.62,-0.53,-2.95,0.0,0.0,0.0,-8.11,0.03,-5.5
1738247944.2433481,66926,0,0,,0.0,-0.8,0.32,0.47,0.18,-0.44,-4.68,0.02,-8.96,0.23,-3.78,0.0,0.0,0.0,-8.57,0.07,-4.76
1738247944.2610917,66927,0,0,,0.0,-0.78,0.3,0.51,0.19,-0.67,-4.86,0.0,-9.54,0.3,-4.15,0.0,0.0,0.0,-8.98,0.14,-3.92
1738247944.2772076,66928,0,0,,0.0,-0.77,0.3,0.53,0.19,-1.24,-5.13,-0.06,-11.03,0.48,-4.59,0.0,0.0,0.0,-9.17,0.18,-3.46
1738247944.293399,66929,0,0,,0.0,-0.74,0.28,0.58,0.2,-1.6,-5.34,-0.17,-12.61,0.03,-6.0,0.0,0.0,0.0,-9.47,0.24,-2.5
1738247944.310645,66930,0,0,,0.0,-0.71,0.26,0.62,0.2,-1.57,-5.42,-0.22,-12.92,-0.14,-6.58,0.0,0.0,0.0,-9.59,0.25,-2.0
1738247944.3270464,66931,0,0,,0.0,-0.7,0.25,0.64,0.21,-1.22,-5.42,-0.29,-13.98,-0.84,-7.18,0.0,0.0,0.0,-9.75,0.24,-0.97
1738247944.343337,66932,0,0,,0.0,-0.67,0.23,0.67,0.21,-0.6,-5.23,-0.32,-14.36,-0.07,-7.68,0.0,0.0,0.0,-9.8,0.19,0.02
1738247944.3606992,66933,0,0,,0.0,-0.64,0.21,0.71,0.23,-0.33,-5.07,-0.29,-14.06,0.89,-7.37,0.0,0.0,0.0,-9.79,0.16,0.5
1738247944.376595,66934,0,0,,0.0,-0.62,0.21,0.72,0.23,-0.25,-4.64,-0.18,-12.98,0.87,-6.69,0.0,0.0,0.0,-9.7,0.12,1.4
1738247944.3942375,66935,0,0,,0.0,-0.59,0.19,0.75,0.24,-0.35,-4.13,-0.12,-12.58,0.41,-5.88,0.0,0.0,0.0,-9.55,0.08,2.2
1738247944.411504,66936,0,0,,0.0,-0.57,0.18,0.77,0.24,-0.41,-3.9,-0.09,-12.23,-0.12,-6.01,0.0,0.0,0.0,-9.36,0.05,2.89
1738247944.4271119,66937,0,0,,0.0,-0.55,0.18,0.78,0.25,-0.1,-3.37,-0.08,-11.39,-0.25,-5.36,0.0,0.0,0.0,-9.27,0.04,3.19
1738247944.4443762,66938,0,0,,0.0,-0.53,0.17,0.79,0.25,0.31,-2.79,-0.02,-10.33,-0.08,-5.28,0.0,0.0,0.0,-9.07,0.05,3.72
1738247944.4610405,66939,0,0,,0.0,-0.51,0.17,0.8,0.26,0.46,-2.44,0.0,-9.61,0.38,-5.63,0.0,0.0,0.0,-8.9,0.09,4.11
1738247944.477315,66940,0,0,,0.0,-0.5,0.17,0.81,0.26,0.63,-1.63,0.09,-8.69,0.52,-5.99,0.0,0.0,0.0,-8.83,0.12,4.25
1738247944.4945986,66941,0,0,,0.0,-0.5,0.17,0.81,0.26,0.56,-0.65,0.11,-7.68,1.37,-6.78,0.0,0.0,0.0,-8.76,0.19,4.4
1738247944.5111158,66942,0,0,,0.0,-0.5,0.18,0.81,0.26,0.4,-0.12,0.13,-7.81,1.61,-6.89,0.0,0.0,0.0,-8.77,0.24,4.37
1738247944.527733,66943,0,0,,0.0,-0.5,0.18,0.81,0.26,-0.08,0.9,0.14,-8.7,1.16,-6.97,0.0,0.0,0.0,-8.8,0.25,4.3
1738247944.5449347,66944,0,0,,0.0,-0.51,0.18,0.8,0.26,-0.47,1.65,0.16,-14.27,0.93,12.52,0.0,0.0,0.0,-8.92,0.24,4.04
1738247944.561504,66945,0,0,,0.0,-0.52,0.18,0.8,0.25,-0.31,1.42,0.14,-19.62,-1.69,27.68,0.0,0.0,0.0,-9.0,0.25,3.88
1738247944.5782216,66946,0,0,,0.0,-0.52,0.18,0.8,0.25,-0.32,0.12,0.27,-6.84,-2.2,-3.76,0.0,0.0,0.0,-9.0,0.26,3.87
1738247944.5952227,66947,0,0,,0.0,-0.52,0.18,0.79,0.25,-0.28,0.84,0.32,-11.6,1.4,3.9,0.0,0.0,0.0,-9.04,0.31,3.77
1738247944.611544,66948,0,0,,0.0,-0.53,0.18,0.79,0.24,-0.18,1.2,0.21,-12.55,0.5,3.33,0.0,0.0,0.0,-9.13,0.34,3.56
1738247944.6281962,66949,0,0,,0.0,-0.54,0.19,0.79,0.24,-0.8,1.27,0.42,-11.12,2.8,0.48,0.0,0.0,0.0,-9.17,0.35,3.45
1738247944.6452386,66950,0,0,,0.0,-0.55,0.18,0.78,0.22,-1.45,1.12,0.44,-9.59,1.47,1.57,0.0,0.0,0.0,-9.24,0.34,3.25
1738247944.6618037,66951,0,0,,0.0,-0.56,0.17,0.78,0.21,-1.48,1.03,0.45,-9.84,-0.62,2.72,0.0,0.0,0.0,-9.3,0.34,3.08
1738247944.6776206,66952,0,0,,0.0,-0.56,0.17,0.78,0.21,-0.53,0.95,0.47,-9.39,-0.64,2.21,0.0,0.0,0.0,-9.32,0.36,2.99
1738247944.694857,66953,0,0,,0.0,-0.57,0.18,0.78,0.21,0.45,0.78,0.4,-9.04,0.31,2.26,0.0,0.0,0.0,-9.37,0.45,2.84
1738247944.7117746,66954,0,0,,0.0,-0.57,0.19,0.77,0.2,0.65,0.69,0.38,-9.38,0.96,1.35,0.0,0.0,0.0,-9.4,0.56,2.71
1738247944.727467,66955,0,0,,0.0,-0.57,0.19,0.77,0.2,0.49,0.67,0.42,-10.51,0.69,1.75,0.0,0.0,0.0,-9.42,0.61,2.65
1738247944.7448175,66956,0,0,,0.0,-0.58,0.2,0.77,0.2,0.04,0.65,0.41,-9.9,1.19,1.58,0.0,0.0,0.0,-9.44,0.69,2.53
1738247944.761388,66957,0,0,,0.0,-0.58,0.2,0.77,0.19,-0.18,0.64,0.41,-9.88,1.19,1.75,0.0,0.0,0.0,-9.47,0.76,2.41
1738247944.7770393,66958,0,0,,0.0,-0.58,0.2,0.76,0.19,-0.34,0.6,0.39,-9.57,1.46,1.54,0.0,0.0,0.0,-9.48,0.78,2.36
1738247944.7945044,66959,0,0,,0.0,-0.59,0.2,0.76,0.19,-0.29,0.62,0.34,-9.71,1.13,2.15,0.0,0.0,0.0,-9.5,0.84,2.25
1738247944.811642,66960,0,0,,0.0,-0.59,0.2,0.76,0.18,-0.18,0.62,0.3,-9.36,0.86,1.91,0.0,0.0,0.0,-9.52,0.88,2.14
1738247944.8271556,66961,0,0,,0.0,-0.59,0.2,0.76,0.18,0.14,0.65,0.23,-9.37,0.73,1.97,0.0,0.0,0.0,-9.53,0.91,2.08
1738247944.8443933,66962,0,0,,0.0,-0.6,0.21,0.75,0.18,0.45,0.72,0.17,-9.58,0.98,2.15,0.0,0.0,0.0,-9.56,0.96,1.94
1738247944.8613725,66963,0,0,,0.0,-0.6,0.21,0.75,0.18,0.53,0.72,0.14,-9.42,1.22,1.6,0.0,0.0,0.0,-9.58,1.0,1.8
1738247944.8768923,66964,0,0,,0.0,-0.6,0.22,0.74,0.18,0.58,0.76,0.11,-9.68,1.06,1.73,0.0,0.0,0.0,-9.59,1.02,1.72
1738247944.8947816,66965,0,0,,0.0,-0.61,0.22,0.74,0.18,0.66,0.78,0.08,-9.6,1.3,1.44,0.0,0.0,0.0,-9.62,1.06,1.56
1738247944.9113586,66966,0,0,,0.0,-0.61,0.23,0.73,0.19,0.66,0.77,0.06,-9.65,1.2,1.23,0.0,0.0,0.0,-9.64,1.09,1.41
1738247944.9264228,66967,0,0,,0.0,-0.61,0.23,0.73,0.19,0.65,0.73,0.05,-9.73,1.36,0.93,0.0,0.0,0.0,-9.65,1.1,1.33
1738247944.944161,66968,0,0,,0.0,-0.62,0.24,0.73,0.19,0.55,0.68,0.04,-9.82,1.41,0.85,0.0,0.0,0.0,-9.66,1.12,1.19
1738247944.9608634,66969,0,0,,0.0,-0.62,0.24,0.72,0.19,0.44,0.67,0.04,-10.14,1.16,1.38,0.0,0.0,0.0,-9.68,1.14,1.06
1738247944.976096,66970,0,0,,0.0,-0.62,0.25,0.72,0.19,0.25,0.58,0.05,-9.7,1.28,0.55,0.0,0.0,0.0,-9.68,1.15,1.01
1738247944.99289,66971,0,0,,0.0,-0.63,0.25,0.71,0.19,0.11,0.61,0.06,-9.93,1.15,1.24,0.0,0.0,0.0,-9.69,1.16,0.89
1738247945.010185,66972,0,0,,0.0,-0.63,0.25,0.71,0.19,0.09,0.63,0.05,-9.97,1.25,1.15,0.0,0.0,0.0,-9.7,1.17,0.83
1738247945.0244286,66973,0,0,,0.0,-0.63,0.25,0.71,0.19,0.09,0.61,0.05,-9.57,1.23,0.88,0.0,0.0,0.0,-9.7,1.18,0.72
1738247945.0426295,66974,0,0,,0.0,-0.64,0.25,0.7,0.18,0.16,0.64,0.03,-9.58,1.4,0.61,0.0,0.0,0.0,-9.71,1.19,0.6
1738247945.0600595,66975,0,0,,0.0,-0.64,0.26,0.7,0.19,0.28,0.64,0.02,-9.58,1.39,0.38,0.0,0.0,0.0,-9.71,1.19,0.53
1738247945.074868,66976,0,0,,0.0,-0.64,0.26,0.7,0.19,0.35,0.71,0.0,-9.81,1.42,0.95,0.0,0.0,0.0,-9.72,1.19,0.39
1738247945.0924835,66977,0,0,,0.0,-0.65,0.26,0.69,0.19,0.34,0.72,-0.01,-9.66,1.42,-0.16,0.0,0.0,0.0,-9.72,1.2,0.25
1738247945.1101182,66978,0,0,,0.0,-0.65,0.26,0.69,0.19,0.27,0.76,-0.01,-9.68,1.41,-0.02,0.0,0.0,0.0,-9.73,1.2,0.18
1738247945.1246545,66979,0,0,,0.0,-0.65,0.27,0.68,0.19,0.26,0.77,-0.03,-9.6,1.47,-0.21,0.0,0.0,0.0,-9.73,1.19,0.02
1738247945.1426008,66980,0,0,,0.0,-0.66,0.27,0.68,0.18,0.26,0.77,-0.03,-9.81,1.24,-0.37,0.0,0.0,0.0,-9.73,1.19,-0.12
1738247945.1605258,66981,0,0,,0.0,-0.66,0.27,0.67,0.18,0.26,0.82,-0.05,-10.01,1.25,0.02,0.0,0.0,0.0,-9.73,1.18,-0.2
1738247945.175445,66982,0,0,,0.0,-0.67,0.27,0.67,0.18,0.3,0.84,-0.06,-9.78,1.31,-0.34,0.0,0.0,0.0,-9.72,1.17,-0.36
1738247945.1931121,66983,0,0,,0.0,-0.67,0.28,0.66,0.18,0.3,0.88,-0.07,-10.21,1.38,-0.15,0.0,0.0,0.0,-9.72,1.15,-0.54
1738247945.210217,66984,0,0,,0.0,-0.68,0.28,0.65,0.19,0.35,0.94,-0.1,-10.01,1.44,-0.34,0.0,0.0,0.0,-9.71,1.14,-0.63
1738247945.2250066,66985,0,0,,0.0,-0.68,0.28,0.65,0.19,0.4,1.01,-0.11,-10.56,1.09,-0.06,0.0,0.0,0.0,-9.7,1.12,-0.82
1738247945.2429113,66986,0,0,,0.0,-0.69,0.29,0.64,0.19,0.45,1.06,-0.12,-10.43,1.35,-0.95,0.0,0.0,0.0,-9.69,1.08,-1.03
1738247945.2608173,66987,0,0,,0.0,-0.69,0.29,0.63,0.19,0.48,1.12,-0.14,-10.76,1.08,-0.78,0.0,0.0,0.0,-9.68,1.07,-1.14
1738247945.2750869,66988,0,0,,0.0,-0.7,0.29,0.63,0.19,0.49,1.22,-0.17,-10.68,0.62,-0.34,0.0,0.0,0.0,-9.65,1.02,-1.38
1738247945.2936723,66989,0,0,,0.0,-0.7,0.3,0.62,0.19,0.49,1.25,-0.19,-10.5,0.85,-1.46,0.0,0.0,0.0,-9.62,0.97,-1.63
1738247945.3102686,66990,0,0,,0.0,-0.71,0.3,0.61,0.19,0.34,1.38,-0.23,-10.83,0.74,-0.94,0.0,0.0,0.0,-9.59,0.95,-1.76
1738247945.3255463,66991,0,0,,0.0,-0.72,0.3,0.6,0.19,0.26,1.44,-0.31,-10.96,0.78,-0.57,0.0,0.0,0.0,-9.55,0.88,-2.03
1738247945.34376,66992,0,0,,0.0,-0.73,0.3,0.59,0.19,0.18,1.55,-0.41,-11.96,2.16,-0.65,0.0,0.0,0.0,-9.49,0.8,-2.31
1738247945.3611803,66993,0,0,,0.0,-0.74,0.3,0.58,0.19,0.05,1.64,-0.43,-12.32,0.77,0.44,0.0,0.0,0.0,-9.46,0.76,-2.46
1738247945.3759363,66994,0,0,,0.0,-0.74,0.3,0.57,0.18,0.04,1.63,-0.46,-9.67,0.8,-2.43,0.0,0.0,0.0,-9.38,0.67,-2.75
1738247945.394426,66995,0,0,,0.0,-0.75,0.3,0.56,0.18,0.05,1.79,-0.58,-10.73,-0.38,-0.81,0.0,0.0,0.0,-9.29,0.57,-3.07
1738247945.411573,66996,0,0,,0.0,-0.76,0.3,0.54,0.18,0.1,1.77,-0.59,-9.92,0.24,-1.27,0.0,0.0,0.0,-9.18,0.46,-3.4
1738247945.427006,66997,0,0,,0.0,-0.77,0.3,0.53,0.18,0.14,1.96,-0.65,-10.05,-0.49,-0.86,0.0,0.0,0.0,-9.12,0.4,-3.58
1738247945.4449818,66998,0,0,,0.0,-0.78,0.3,0.52,0.18,0.37,2.21,-0.67,-10.42,-0.33,0.65,0.0,0.0,0.0,-8.96,0.26,-3.95
1738247945.4616973,66999,0,0,,0.0,-0.79,0.3,0.49,0.18,0.5,2.34,-0.66,-10.59,0.15,1.02,0.0,0.0,0.0,-8.77,0.11,-4.37
1738247945.476998,67000,0,0,,0.0,-0.8,0.3,0.48,0.18,0.76,2.58,-0.45,-10.73,1.86,0.76,0.0,0.0,0.0,-8.66,0.03,-4.58
1738247945.495492,67001,0,0,,0.0,-0.81,0.31,0.46,0.18,0.72,2.96,-0.17,-11.28,2.9,-2.92,0.0,0.0,0.0,-8.4,-0.07,-5.05
1738247945.5120175,67002,0,0,,0.0,-0.83,0.32,0.43,0.17,0.46,3.25,-0.03,-14.81,2.22,-1.86,0.0,0.0,0.0,-8.05,-0.1,-5.59
1738247945.527194,67003,0,0,,0.0,-0.83,0.32,0.42,0.17,0.05,3.47,0.04,-16.29,1.42,-1.97,0.0,0.0,0.0,-7.86,-0.1,-5.85
1738247945.545904,67004,0,0,,0.0,-0.85,0.33,0.39,0.16,0.18,3.34,0.1,-14.95,1.56,-3.35,0.0,0.0,0.0,-7.46,-0.1,-6.36
1738247945.562749,67005,0,0,,0.0,-0.86,0.33,0.36,0.15,0.31,3.15,0.14,-14.16,1.75,-1.97,0.0,0.0,0.0,-7.07,-0.12,-6.78
1738247945.5776355,67006,0,0,,0.0,-0.86,0.34,0.35,0.15,0.3,2.5,0.22,-11.58,1.69,1.42,0.0,0.0,0.0,-6.91,-0.13,-6.95
1738247945.5965452,67007,0,0,,0.0,-0.87,0.34,0.34,0.14,0.13,1.59,0.29,-10.13,0.47,0.11,0.0,0.0,0.0,-6.66,-0.12,-7.19
1738247945.6128798,67008,0,0,,0.0,-0.87,0.35,0.33,0.14,0.0,1.21,0.29,-9.15,0.8,-0.53,0.0,0.0,0.0,-6.52,-0.09,-7.32
1738247945.628086,67009,0,0,,0.0,-0.87,0.35,0.33,0.14,0.04,0.46,0.27,-8.4,0.54,-0.92,0.0,0.0,0.0,-6.48,-0.07,-7.35
1738247945.646712,67010,0,0,,0.0,-0.87,0.35,0.33,0.13,-0.12,-0.38,0.28,-7.34,-0.94,-1.46,0.0,0.0,0.0,-6.51,-0.02,-7.33
1738247945.6626856,67011,0,0,,0.0,-0.86,0.35,0.34,0.14,-0.08,-0.82,0.26,-6.68,-0.85,-1.78,0.0,0.0,0.0,-6.65,0.0,-7.2
1738247945.6776323,67012,0,0,,0.0,-0.86,0.35,0.34,0.14,0.0,-1.64,0.13,-6.38,-0.68,-1.74,0.0,0.0,0.0,-6.77,0.01,-7.09
1738247945.696894,67013,0,0,,0.0,-0.85,0.35,0.36,0.15,-0.07,-2.43,-0.0,-6.2,-0.61,-2.49,0.0,0.0,0.0,-7.07,0.02,-6.79
1738247945.7132006,67014,0,0,,0.0,-0.84,0.34,0.39,0.16,-0.07,-2.8,-0.05,-6.87,-0.46,-2.68,0.0,0.0,0.0,-7.44,0.02,-6.37
1738247945.7281532,67015,0,0,,0.0,-0.84,0.34,0.4,0.16,-0.03,-3.45,-0.12,-7.13,-0.23,-2.96,0.0,0.0,0.0,-7.65,0.01,-6.12
1738247945.7474394,67016,0,0,,0.0,-0.82,0.33,0.43,0.17,-0.18,-4.0,-0.13,-7.87,0.01,-3.41,0.0,0.0,0.0,-8.09,0.01,-5.53
1738247945.7632365,67017,0,0,,0.0,-0.8,0.32,0.47,0.18,-0.31,-4.22,-0.13,-8.54,0.54,-4.07,0.0,0.0,0.0,-8.52,0.02,-4.83
1738247945.7778678,67018,0,0,,0.0,-0.79,0.31,0.49,0.19,-0.63,-4.56,-0.12,-8.79,0.75,-4.43,0.0,0.0,0.0,-8.73,0.04,-4.45
1738247945.7977917,67019,0,0,,0.0,-0.77,0.3,0.53,0.2,-1.15,-4.77,-0.11,-10.01,1.53,-5.03,0.0,0.0,0.0,-9.1,0.1,-3.63
1738247945.8132656,67020,0,0,,0.0,-0.75,0.28,0.57,0.2,-1.45,-4.85,-0.11,-10.85,1.61,-5.38,0.0,0.0,0.0,-9.4,0.18,-2.75
1738247945.8281305,67021,0,0,,0.0,-0.74,0.27,0.59,0.2,-1.96,-4.98,-0.13,-11.43,1.6,-6.05,0.0,0.0,0.0,-9.53,0.21,-2.29
1738247945.8478844,67022,0,0,,0.0,-0.71,0.25,0.63,0.2,-2.15,-5.05,-0.19,-12.16,0.67,-6.26,0.0,0.0,0.0,-9.7,0.26,-1.34
1738247945.8634095,67023,0,0,,0.0,-0.69,0.22,0.66,0.2,-2.03,-5.04,-0.25,-13.49,-0.54,-6.42,0.0,0.0,0.0,-9.79,0.24,-0.39
1738247945.8795135,67024,0,0,,0.0,-0.67,0.21,0.68,0.2,-1.38,-4.94,-0.4,-13.68,-0.62,-6.52,0.0,0.0,0.0,-9.8,0.2,0.07
1738247945.8989038,67025,0,0,,0.0,-0.64,0.2,0.71,0.21,-0.52,-4.71,-0.47,-13.73,-0.66,-6.14,0.0,0.0,0.0,-9.75,0.11,0.98
1738247945.9135985,67026,0,0,,0.0,-0.61,0.18,0.74,0.22,0.15,-4.31,-0.45,-13.25,0.08,-6.29,0.0,0.0,0.0,-9.63,0.02,1.81
1738247945.930088,67027,0,0,,0.0,-0.6,0.18,0.75,0.23,0.37,-4.07,-0.4,-12.36,0.41,-6.56,0.0,0.0,0.0,-9.55,0.0,2.19
1738247945.9498518,67028,0,0,,0.0,-0.57,0.17,0.77,0.24,0.58,-3.47,-0.22,-10.8,1.35,-7.09,0.0,0.0,0.0,-9.37,-0.02,2.86
1738247945.9643438,67029,0,0,,0.0,-0.55,0.17,0.78,0.24,0.37,-2.75,-0.01,-10.07,1.59,-6.44,0.0,0.0,0.0,-9.2,-0.01,3.38
1738247945.9808724,67030,0,0,,0.0,-0.53,0.17,0.79,0.25,0.14,-2.37,0.06,-9.75,1.38,-6.39,0.0,0.0,0.0,-9.12,0.0,3.6
1738247946.0001993,67031,0,0,,0.0,-0.52,0.16,0.8,0.25,-0.27,-1.55,0.08,-8.44,1.11,-6.65,0.0,0.0,0.0,-8.99,0.0,3.91
1738247946.0149474,67032,0,0,,0.0,-0.52,0.16,0.8,0.25,-0.51,-0.66,0.09,-8.34,0.66,-6.58,0.0,0.0,0.0,-8.92,-0.02,4.06
1738247946.0311997,67033,0,0,,0.0,-0.52,0.15,0.81,0.24,-0.54,-0.25,0.1,-8.55,0.59,-6.37,0.0,0.0,0.0,-8.92,-0.04,4.07
1738247946.0502586,67034,0,0,,0.0,-0.52,0.15,0.8,0.24,-0.48,0.45,0.13,-8.83,1.45,-6.76,0.0,0.0,0.0,-8.93,-0.05,4.03
1738247946.0652258,67035,0,0,,0.0,-0.53,0.15,0.8,0.24,-0.47,1.09,0.21,-11.3,1.27,0.82,0.0,0.0,0.0,-9.01,-0.05,3.87
1738247946.081761,67036,0,0,,0.0,-0.54,0.15,0.8,0.23,-0.42,1.27,0.22,-16.27,-0.87,19.31,0.0,0.0,0.0,-9.08,-0.04,3.68
1738247946.1005,67037,0,0,,0.0,-0.54,0.15,0.8,0.23,0.07,0.21,0.14,-17.86,-2.66,8.26,0.0,0.0,0.0,-9.09,-0.03,3.66
1738247946.1149347,67038,0,0,,0.0,-0.54,0.16,0.8,0.23,-0.11,0.48,0.43,-7.33,-0.68,-4.34,0.0,0.0,0.0,-9.11,0.03,3.61
1738247946.131233,67039,0,0,,0.0,-0.55,0.16,0.79,0.22,-0.04,0.92,0.34,-10.38,1.19,1.26,0.0,0.0,0.0,-9.18,0.09,3.44
1738247946.150456,67040,0,0,,0.0,-0.56,0.16,0.79,0.21,-0.44,1.1,0.45,-11.6,0.59,0.51,0.0,0.0,0.0,-9.21,0.12,3.34
1738247946.1652706,67041,0,0,,0.0,-0.56,0.16,0.79,0.21,-1.27,1.04,0.47,-9.87,1.6,1.72,0.0,0.0,0.0,-9.28,0.13,3.15
1738247946.1812868,67042,0,0,,0.0,-0.57,0.15,0.78,0.2,-1.33,0.93,0.45,-9.21,-0.17,2.74,0.0,0.0,0.0,-9.33,0.14,2.99
1738247946.200582,67043,0,0,,0.0,-0.57,0.15,0.78,0.19,-0.48,0.77,0.45,-8.92,-0.38,2.88,0.0,0.0,0.0,-9.35,0.17,2.92
1738247946.2174308,67044,0,0,,0.0,-0.58,0.16,0.78,0.19,0.38,0.71,0.46,-8.98,0.66,2.88,0.0,0.0,0.0,-9.39,0.27,2.79
1738247946.2313433,67045,0,0,,0.0,-0.58,0.17,0.77,0.19,0.67,0.62,0.39,-9.04,0.69,2.78,0.0,0.0,0.0,-9.41,0.32,2.73
1738247946.2501104,67046,0,0,,0.0,-0.58,0.18,0.77,0.19,0.78,0.56,0.4,-10.07,0.32,1.31,0.0,0.0,0.0,-9.43,0.43,2.62
1738247946.265508,67047,0,0,,0.0,-0.58,0.18,0.77,0.19,0.49,0.64,0.36,-10.36,1.01,2.34,0.0,0.0,0.0,-9.46,0.53,2.5
1738247946.2813134,67048,0,0,,0.0,-0.59,0.19,0.77,0.19,0.25,0.63,0.34,-10.03,1.15,2.01,0.0,0.0,0.0,-9.47,0.57,2.45
1738247946.3008592,67049,0,0,,0.0,-0.59,0.19,0.76,0.18,-0.25,0.66,0.34,-9.92,1.61,2.3,0.0,0.0,0.0,-9.5,0.63,2.33
1738247946.3156548,67050,0,0,,0.0,-0.59,0.19,0.76,0.18,-0.41,0.63,0.3,-9.63,0.97,1.81,0.0,0.0,0.0,-9.52,0.67,2.21
1738247946.331859,67051,0,0,,0.0,-0.6,0.19,0.76,0.18,-0.34,0.65,0.26,-9.66,0.76,1.78,0.0,0.0,0.0,-9.55,0.7,2.1
1738247946.3505878,67052,0,0,,0.0,-0.6,0.19,0.75,0.18,0.07,0.66,0.18,-9.56,0.47,2.25,0.0,0.0,0.0,-9.56,0.72,2.04
1738247946.365787,67053,0,0,,0.0,-0.6,0.19,0.75,0.18,0.47,0.73,0.13,-9.38,0.9,1.97,0.0,0.0,0.0,-9.58,0.76,1.9
1738247946.3824747,67054,0,0,,0.0,-0.61,0.2,0.75,0.18,0.59,0.76,0.1,-9.54,0.82,2.31,0.0,0.0,0.0,-9.61,0.8,1.75
1738247946.4010632,67055,0,0,,0.0,-0.61,0.21,0.74,0.18,0.63,0.8,0.06,-9.34,1.24,1.47,0.0,0.0,0.0,-9.62,0.82,1.67
1738247946.4160287,67056,0,0,,0.0,-0.62,0.21,0.74,0.18,0.56,0.85,0.05,-9.59,1.24,1.41,0.0,0.0,0.0,-9.65,0.84,1.5
1738247946.4312162,67057,0,0,,0.0,-0.62,0.21,0.73,0.18,0.53,0.83,0.03,-9.6,1.07,0.99,0.0,0.0,0.0,-9.66,0.85,1.42
1738247946.4514163,67058,0,0,,0.0,-0.63,0.22,0.73,0.18,0.49,0.79,0.03,-9.68,1.11,0.69,0.0,0.0,0.0,-9.68,0.87,1.26
1738247946.4653642,67059,0,0,,0.0,-0.63,0.22,0.72,0.18,0.49,0.74,0.02,-9.81,0.86,0.5,0.0,0.0,0.0,-9.7,0.89,1.11
1738247946.480535,67060,0,0,,0.0,-0.63,0.23,0.72,0.18,0.45,0.71,0.03,-9.74,0.98,0.55,0.0,0.0,0.0,-9.7,0.89,1.04
1738247946.4999666,67061,0,0,,0.0,-0.63,0.23,0.72,0.18,0.31,0.7,0.03,-10.06,0.96,1.1,0.0,0.0,0.0,-9.72,0.91,0.9
1738247946.5142632,67062,0,0,,0.0,-0.64,0.23,0.71,0.18,0.1,0.65,0.06,-9.8,0.96,0.55,0.0,0.0,0.0,-9.73,0.92,0.77
1738247946.5289667,67063,0,0,,0.0,-0.64,0.23,0.71,0.18,0.05,0.67,0.06,-9.91,1.02,0.83,0.0,0.0,0.0,-9.73,0.93,0.71
1738247946.548197,67064,0,0,,0.0,-0.65,0.23,0.71,0.18,0.07,0.67,0.05,-9.71,0.93,0.57,0.0,0.0,0.0,-9.74,0.94,0.58
1738247946.5634553,67065,0,0,,0.0,-0.65,0.24,0.7,0.18,0.14,0.68,0.05,-9.71,1.01,0.73,0.0,0.0,0.0,-9.74,0.95,0.45
1738247946.5785024,67066,0,0,,0.0,-0.65,0.24,0.7,0.18,0.28,0.69,0.03,-9.75,1.19,0.7,0.0,0.0,0.0,-9.75,0.95,0.38
1738247946.5976999,67067,0,0,,0.0,-0.66,0.24,0.69,0.18,0.3,0.71,0.03,-9.53,1.47,-0.19,0.0,0.0,0.0,-9.75,0.96,0.25
1738247946.613298,67068,0,0,,0.0,-0.66,0.24,0.69,0.18,0.29,0.76,0.02,-9.91,1.28,0.57,0.0,0.0,0.0,-9.75,0.96,0.1
1738247946.627998,67069,0,0,,0.0,-0.66,0.24,0.69,0.18,0.21,0.75,0.01,-9.58,1.31,0.04,0.0,0.0,0.0,-9.75,0.96,0.02
1738247946.6461198,67070,0,0,,0.0,-0.67,0.25,0.68,0.18,0.18,0.83,0.0,-9.85,0.95,0.23,0.0,0.0,0.0,-9.75,0.97,-0.12
1738247946.662768,67071,0,0,,0.0,-0.67,0.25,0.67,0.18,0.2,0.84,-0.01,-9.91,1.1,0.08,0.0,0.0,0.0,-9.75,0.97,-0.28
1738247946.6773012,67072,0,0,,0.0,-0.68,0.25,0.67,0.18,0.23,0.9,-0.02,-9.91,1.12,-0.41,0.0,0.0,0.0,-9.75,0.97,-0.37
1738247946.6938016,67073,0,0,,0.0,-0.68,0.25,0.66,0.18,0.24,0.93,-0.03,-10.07,0.94,0.04,0.0,0.0,0.0,-9.74,0.96,-0.55
1738247946.712274,67074,0,0,,0.0,-0.69,0.26,0.66,0.18,0.3,0.95,-0.04,-9.93,1.1,-0.85,0.0,0.0,0.0,-9.73,0.94,-0.74
1738247946.726628,67075,0,0,,0.0,-0.69,0.26,0.65,0.18,0.35,1.04,-0.06,-10.49,1.05,-0.32,0.0,0.0,0.0,-9.72,0.93,-0.84
1738247946.7432995,67076,0,0,,0.0,-0.7,0.26,0.64,0.18,0.37,1.05,-0.07,-10.61,0.95,-0.7,0.0,0.0,0.0,-9.7,0.91,-1.05
1738247946.7618287,67077,0,0,,0.0,-0.7,0.27,0.64,0.18,0.38,1.12,-0.09,-10.73,0.8,-0.8,0.0,0.0,0.0,-9.69,0.9,-1.16
1738247946.776423,67078,0,0,,0.0,-0.71,0.27,0.63,0.18,0.37,1.19,-0.11,-10.94,0.35,-0.85,0.0,0.0,0.0,-9.66,0.87,-1.38
1738247946.7924092,67079,0,0,,0.0,-0.71,0.27,0.62,0.18,0.33,1.21,-0.14,-10.83,0.55,-1.32,0.0,0.0,0.0,-9.63,0.84,-1.62
1738247946.811551,67080,0,0,,0.0,-0.72,0.27,0.61,0.18,0.22,1.34,-0.19,-11.27,0.51,-0.74,0.0,0.0,0.0,-9.61,0.82,-1.75
1738247946.8269317,67081,0,0,,0.0,-0.73,0.28,0.61,0.18,0.19,1.4,-0.26,-11.15,0.78,-1.01,0.0,0.0,0.0,-9.56,0.76,-2.01
1738247946.8429325,67082,0,0,,0.0,-0.73,0.28,0.59,0.18,0.25,1.42,-0.31,-12.24,1.74,-1.09,0.0,0.0,0.0,-9.51,0.69,-2.28
1738247946.8616807,67083,0,0,,0.0,-0.74,0.28,0.58,0.18,0.31,1.56,-0.42,-12.74,1.3,0.0,0.0,0.0,0.0,-9.47,0.64,-2.42
1738247946.8765855,67084,0,0,,0.0,-0.75,0.28,0.57,0.18,0.48,1.53,-0.44,-9.67,0.4,-2.04,0.0,0.0,0.0,-9.4,0.54,-2.71
1738247946.8937051,67085,0,0,,0.0,-0.76,0.28,0.56,0.18,0.57,1.64,-0.47,-10.98,-0.21,-0.24,0.0,0.0,0.0,-9.31,0.42,-3.02
1738247946.9119933,67086,0,0,,0.0,-0.77,0.28,0.54,0.18,0.56,1.72,-0.59,-10.54,0.08,-0.97,0.0,0.0,0.0,-9.21,0.28,-3.34
1738247946.927032,67087,0,0,,0.0,-0.77,0.28,0.54,0.18,0.48,1.92,-0.61,-10.46,-1.01,0.21,0.0,0.0,0.0,-9.15,0.21,-3.51
1738247946.9439688,67088,0,0,,0.0,-0.78,0.29,0.52,0.18,0.48,1.97,-0.63,-9.65,-1.05,-0.26,0.0,0.0,0.0,-9.0,0.06,-3.87
1738247946.9625885,67089,0,0,,0.0,-0.8,0.29,0.5,0.19,0.65,2.25,-0.57,-9.97,-1.26,0.45,0.0,0.0,0.0,-8.82,-0.08,-4.27
1738247946.9772675,67090,0,0,,0.0,-0.8,0.29,0.49,0.19,0.78,2.45,-0.47,-10.28,0.38,1.66,0.0,0.0,0.0,-8.72,-0.15,-4.47
1738247946.993933,67091,0,0,,0.0,-0.81,0.3,0.46,0.19,0.77,2.56,-0.33,-10.91,2.86,-1.44,0.0,0.0,0.0,-8.47,-0.26,-4.91
1738247947.012378,67092,0,0,,0.0,-0.83,0.3,0.44,0.18,0.28,3.02,-0.09,-11.7,2.96,-2.73,0.0,0.0,0.0,-8.16,-0.28,-5.42
1738247947.0273304,67093,0,0,,0.0,-0.84,0.3,0.42,0.17,-0.25,3.41,-0.06,-16.53,1.88,-2.26,0.0,0.0,0.0,-7.98,-0.27,-5.69
1738247947.0442383,67094,0,0,,0.0,-0.85,0.31,0.4,0.16,-0.39,3.37,-0.06,-16.19,1.7,-3.56,0.0,0.0,0.0,-7.6,-0.23,-6.19
1738247947.0622468,67095,0,0,,0.0,-0.86,0.31,0.38,0.15,-0.27,3.08,0.09,-14.05,1.72,-3.12,0.0,0.0,0.0,-7.23,-0.19,-6.61
1738247947.0773447,67096,0,0,,0.0,-0.86,0.32,0.36,0.14,-0.1,2.52,0.21,-12.21,2.02,-0.89,0.0,0.0,0.0,-7.06,-0.17,-6.79
1738247947.0939677,67097,0,0,,0.0,-0.87,0.32,0.35,0.14,-0.13,2.11,0.27,-10.9,0.42,1.56,0.0,0.0,0.0,-6.81,-0.12,-7.04
1738247947.1125205,67098,0,0,,0.0,-0.87,0.32,0.34,0.13,0.08,1.24,0.27,-10.0,-0.31,0.75,0.0,0.0,0.0,-6.67,-0.11,-7.18
1738247947.1273966,67099,0,0,,0.0,-0.87,0.33,0.34,0.13,0.55,0.55,0.24,-9.29,0.09,-1.01,0.0,0.0,0.0,-6.63,-0.14,-7.21
1738247947.1443372,67100,0,0,,0.0,-0.87,0.33,0.34,0.14,0.69,0.19,0.25,-8.56,0.13,-1.19,0.0,0.0,0.0,-6.63,-0.2,-7.21
1738247947.1620715,67101,0,0,,0.0,-0.87,0.33,0.34,0.15,0.61,-0.59,0.28,-7.47,-0.04,-0.85,0.0,0.0,0.0,-6.74,-0.24,-7.11
1738247947.1776676,67102,0,0,,0.0,-0.86,0.33,0.35,0.15,0.45,-1.42,0.25,-6.22,0.09,-1.45,0.0,0.0,0.0,-6.84,-0.26,-7.01
1738247947.194387,67103,0,0,,0.0,-0.86,0.33,0.36,0.16,0.28,-1.82,0.24,-5.82,0.15,-1.9,0.0,0.0,0.0,-7.11,-0.25,-6.74
1738247947.2131124,67104,0,0,,0.0,-0.85,0.33,0.39,0.16,-0.21,-2.61,0.23,-5.93,-0.27,-2.03,0.0,0.0,0.0,-7.47,-0.18,-6.35
1738247947.2279675,67105,0,0,,0.0,-0.84,0.33,0.4,0.17,-0.47,-3.27,0.15,-7.0,-1.23,-2.46,0.0,0.0,0.0,-7.66,-0.14,-6.11
1738247947.2436504,67106,0,0,,0.0,-0.83,0.32,0.43,0.17,-0.54,-3.58,0.09,-7.68,-1.1,-2.9,0.0,0.0,0.0,-8.08,-0.06,-5.54
1738247947.2627983,67107,0,0,,0.0,-0.81,0.31,0.47,0.18,-0.66,-4.12,-0.01,-8.01,-1.08,-2.99,0.0,0.0,0.0,-8.51,0.0,-4.86
1738247947.2776434,67108,0,0,,0.0,-0.8,0.3,0.49,0.18,-0.71,-4.54,-0.1,-8.61,-0.4,-3.78,0.0,0.0,0.0,-8.72,0.01,-4.48
1738247947.2944636,67109,0,0,,0.0,-0.78,0.29,0.53,0.19,-0.83,-4.69,-0.14,-10.02,0.51,-4.41,0.0,0.0,0.0,-9.09,0.06,-3.66
1738247947.3127,67110,0,0,,0.0,-0.75,0.27,0.57,0.2,-1.29,-4.94,-0.21,-10.67,0.73,-4.63,0.0,0.0,0.0,-9.4,0.11,-2.76
1738247947.3277655,67111,0,0,,0.0,-0.74,0.26,0.59,0.2,-1.75,-5.13,-0.29,-11.61,1.02,-4.97,0.0,0.0,0.0,-9.53,0.12,-2.29
1738247947.3441868,67112,0,0,,0.0,-0.72,0.24,0.63,0.2,-1.91,-5.2,-0.34,-12.41,0.81,-6.37,0.0,0.0,0.0,-9.71,0.12,-1.31
1738247947.3632007,67113,0,0,,0.0,-0.69,0.21,0.67,0.2,-1.92,-5.2,-0.43,-13.06,0.4,-6.31,0.0,0.0,0.0,-9.8,0.07,-0.33
1738247947.3782175,67114,0,0,,0.0,-0.67,0.2,0.68,0.2,-1.42,-5.05,-0.51,-13.99,-0.27,-6.71,0.0,0.0,0.0,-9.8,0.02,0.14
1738247947.394823,67115,0,0,,0.0,-0.64,0.18,0.72,0.21,-0.76,-4.81,-0.49,-14.11,0.24,-6.85,0.0,0.0,0.0,-9.74,-0.07,1.06
1738247947.4129858,67116,0,0,,0.0,-0.61,0.17,0.74,0.22,-0.52,-4.64,-0.43,-13.51,0.57,-6.61,0.0,0.0,0.0,-9.61,-0.16,1.91
1738247947.4283056,67117,0,0,,0.0,-0.6,0.16,0.75,0.22,-0.11,-4.2,-0.32,-12.8,0.58,-6.04,0.0,0.0,0.0,-9.52,-0.19,2.3
1738247947.4441645,67118,0,0,,0.0,-0.57,0.15,0.78,0.23,0.06,-3.95,-0.28,-11.5,0.36,-6.05,0.0,0.0,0.0,-9.33,-0.23,3.0
1738247947.4627783,67119,0,0,,0.0,-0.54,0.15,0.79,0.24,0.35,-3.38,-0.19,-10.79,0.4,-5.54,0.0,0.0,0.0,-9.12,-0.24,3.58
1738247947.4779735,67120,0,0,,0.0,-0.53,0.15,0.8,0.24,0.55,-2.76,-0.08,-9.65,0.09,-5.17,0.0,0.0,0.0,-9.02,-0.22,3.82
1738247947.4947429,67121,0,0,,0.0,-0.51,0.15,0.81,0.25,0.63,-2.41,-0.03,-9.22,0.51,-5.06,0.0,0.0,0.0,-8.85,-0.17,4.21
1738247947.5129068,67122,0,0,,0.0,-0.5,0.15,0.82,0.25,0.65,-1.66,0.07,-8.6,0.82,-5.43,0.0,0.0,0.0,-8.73,-0.11,4.46
1738247947.5280356,67123,0,0,,0.0,-0.5,0.15,0.82,0.25,0.43,-0.78,0.13,-8.29,1.04,-5.67,0.0,0.0,0.0,-8.69,-0.08,4.52
1738247947.5443006,67124,0,0,,0.0,-0.5,0.15,0.82,0.25,0.26,-0.32,0.14,-8.55,1.37,-5.99,0.0,0.0,0.0,-8.69,-0.04,4.54
1738247947.5627098,67125,0,0,,0.0,-0.5,0.15,0.81,0.25,-0.16,0.57,0.16,-8.71,1.33,-5.95,0.0,0.0,0.0,-8.75,-0.03,4.41
1738247947.577849,67126,0,0,,0.0,-0.51,0.15,0.81,0.24,-0.46,1.32,0.22,-9.35,1.32,-5.25,0.0,0.0,0.0,-8.81,-0.03,4.29
1738247947.5945725,67127,0,0,,0.0,-0.52,0.15,0.81,0.24,-0.57,1.6,0.25,-14.83,0.67,15.39,0.0,0.0,0.0,-8.94,-0.03,4.02
1738247947.6133196,67128,0,0,,0.0,-0.52,0.15,0.8,0.24,0.06,0.6,0.18,-22.03,-3.42,34.2,0.0,0.0,0.0,-8.96,0.0,3.98
1738247947.6280608,67129,0,0,,0.0,-0.52,0.16,0.8,0.23,0.03,0.02,0.55,-6.04,-0.75,-6.96,0.0,0.0,0.0,-8.96,0.05,3.98
1738247947.6436055,67130,0,0,,0.0,-0.53,0.16,0.8,0.23,-0.1,0.57,0.5,-12.1,0.57,5.01,0.0,0.0,0.0,-9.02,0.11,3.83
1738247947.6628857,67131,0,0,,0.0,-0.54,0.16,0.8,0.22,0.0,1.27,0.31,-13.12,-0.61,4.07,0.0,0.0,0.0,-9.11,0.17,3.6
1738247947.677896,67132,0,0,,0.0,-0.54,0.16,0.79,0.22,-0.91,1.33,0.58,-10.99,2.69,0.34,0.0,0.0,0.0,-9.16,0.19,3.49
1738247947.693785,67133,0,0,,0.0,-0.55,0.16,0.79,0.21,-1.26,1.19,0.51,-9.18,1.06,1.81,0.0,0.0,0.0,-9.23,0.19,3.29
1738247947.7131677,67134,0,0,,0.0,-0.56,0.15,0.79,0.19,-1.29,0.96,0.52,-8.85,-0.64,2.93,0.0,0.0,0.0,-9.29,0.22,3.12
1738247947.727813,67135,0,0,,0.0,-0.57,0.16,0.79,0.19,-0.28,0.96,0.58,-9.32,-0.66,1.7,0.0,0.0,0.0,-9.31,0.27,3.04
1738247947.743924,67136,0,0,,0.0,-0.57,0.16,0.78,0.19,0.14,0.87,0.53,-8.84,0.4,2.23,0.0,0.0,0.0,-9.36,0.37,2.89
1738247947.7633007,67137,0,0,,0.0,-0.57,0.17,0.78,0.19,0.62,0.71,0.46,-9.96,0.64,1.89,0.0,0.0,0.0,-9.39,0.49,2.76
1738247947.7778141,67138,0,0,,0.0,-0.58,0.18,0.78,0.19,0.47,0.67,0.48,-10.44,0.46,1.17,0.0,0.0,0.0,-9.41,0.55,2.69
1738247947.7935817,67139,0,0,,0.0,-0.58,0.18,0.77,0.18,0.25,0.68,0.45,-10.29,0.87,2.13,0.0,0.0,0.0,-9.44,0.64,2.57
1738247947.8131106,67140,0,0,,0.0,-0.58,0.18,0.77,0.18,-0.12,0.63,0.43,-9.92,1.29,1.8,0.0,0.0,0.0,-9.46,0.71,2.46
1738247947.8271308,67141,0,0,,0.0,-0.59,0.18,0.77,0.17,-0.34,0.65,0.41,-9.72,1.6,1.89,0.0,0.0,0.0,-9.47,0.73,2.4
1738247947.8441877,67142,0,0,,0.0,-0.59,0.18,0.77,0.17,-0.37,0.66,0.37,-9.5,1.44,2.16,0.0,0.0,0.0,-9.5,0.78,2.28
1738247947.86285,67143,0,0,,0.0,-0.6,0.18,0.76,0.17,-0.23,0.65,0.29,-9.19,0.96,1.91,0.0,0.0,0.0,-9.52,0.83,2.16
1738247947.8777313,67144,0,0,,0.0,-0.6,0.19,0.76,0.16,0.16,0.72,0.21,-9.39,0.7,2.54,0.0,0.0,0.0,-9.54,0.85,2.09
1738247947.8940227,67145,0,0,,0.0,-0.6,0.19,0.76,0.16,0.32,0.74,0.19,-9.36,1.04,1.93,0.0,0.0,0.0,-9.56,0.9,1.95
1738247947.9131398,67146,0,0,,0.0,-0.61,0.2,0.75,0.16,0.54,0.8,0.15,-9.44,1.0,1.94,0.0,0.0,0.0,-9.59,0.94,1.79
1738247947.9307778,67147,0,0,,0.0,-0.61,0.2,0.75,0.17,0.63,0.85,0.11,-9.44,1.19,1.07,0.0,0.0,0.0,-9.6,0.96,1.7
1738247947.9505754,67148,0,0,,0.0,-0.62,0.21,0.74,0.17,0.64,0.9,0.09,-9.7,1.17,1.51,0.0,0.0,0.0,-9.63,1.0,1.52
1738247947.9650903,67149,0,0,,0.0,-0.62,0.21,0.74,0.17,0.6,0.83,0.07,-9.6,1.39,0.62,0.0,0.0,0.0,-9.65,1.03,1.35
1738247947.981622,67150,0,0,,0.0,-0.63,0.22,0.73,0.17,0.54,0.82,0.08,-9.7,1.37,0.49,0.0,0.0,0.0,-9.66,1.05,1.27
1738247948.0019681,67151,0,0,,0.0,-0.63,0.22,0.72,0.17,0.4,0.76,0.09,-9.95,1.11,0.63,0.0,0.0,0.0,-9.68,1.07,1.11
1738247948.016556,67152,0,0,,0.0,-0.63,0.23,0.72,0.17,0.26,0.7,0.11,-9.95,0.96,0.51,0.0,0.0,0.0,-9.69,1.1,0.98
1738247948.0312912,67153,0,0,,0.0,-0.64,0.23,0.72,0.17,0.18,0.69,0.12,-9.94,1.14,0.34,0.0,0.0,0.0,-9.69,1.11,0.91
1738247948.0500603,67154,0,0,,0.0,-0.64,0.23,0.72,0.17,0.06,0.65,0.13,-9.73,1.42,0.45,0.0,0.0,0.0,-9.7,1.14,0.78
1738247948.0651264,67155,0,0,,0.0,-0.64,0.23,0.71,0.16,0.05,0.66,0.12,-9.93,1.14,1.19,0.0,0.0,0.0,-9.71,1.16,0.65
1738247948.079935,67156,0,0,,0.0,-0.64,0.23,0.71,0.16,0.1,0.64,0.11,-9.64,1.32,0.45,0.0,0.0,0.0,-9.71,1.17,0.59
1738247948.096734,67157,0,0,,0.0,-0.65,0.24,0.71,0.16,0.23,0.68,0.1,-9.56,1.18,0.38,0.0,0.0,0.0,-9.72,1.2,0.46
1738247948.1142266,67158,0,0,,0.0,-0.65,0.24,0.7,0.16,0.27,0.71,0.09,-9.81,1.65,0.65,0.0,0.0,0.0,-9.72,1.22,0.33
1738247948.1283395,67159,0,0,,0.0,-0.65,0.24,0.7,0.16,0.26,0.7,0.08,-9.63,1.72,0.53,0.0,0.0,0.0,-9.72,1.22,0.26
1738247948.144569,67160,0,0,,0.0,-0.66,0.24,0.69,0.16,0.24,0.73,0.08,-9.88,1.31,0.62,0.0,0.0,0.0,-9.72,1.24,0.11
1738247948.163047,67161,0,0,,0.0,-0.66,0.25,0.69,0.16,0.23,0.77,0.06,-9.78,1.51,0.13,0.0,0.0,0.0,-9.72,1.25,-0.03
1738247948.1780324,67162,0,0,,0.0,-0.67,0.25,0.68,0.16,0.25,0.83,0.05,-9.66,1.41,-0.15,0.0,0.0,0.0,-9.72,1.26,-0.11
1738247948.1939998,67163,0,0,,0.0,-0.67,0.25,0.68,0.16,0.27,0.86,0.04,-9.91,1.54,-0.31,0.0,0.0,0.0,-9.72,1.26,-0.28
1738247948.213522,67164,0,0,,0.0,-0.68,0.26,0.67,0.16,0.31,0.87,0.02,-9.89,1.35,-0.65,0.0,0.0,0.0,-9.71,1.26,-0.46
1738247948.2279887,67165,0,0,,0.0,-0.68,0.26,0.67,0.16,0.41,0.91,-0.01,-10.21,1.11,0.07,0.0,0.0,0.0,-9.7,1.26,-0.55
1738247948.244576,67166,0,0,,0.0,-0.68,0.26,0.66,0.16,0.44,0.89,-0.02,-10.08,1.45,-0.67,0.0,0.0,0.0,-9.69,1.25,-0.73
1738247948.2637277,67167,0,0,,0.0,-0.69,0.27,0.65,0.16,0.47,0.99,-0.03,-10.05,1.48,-0.71,0.0,0.0,0.0,-9.68,1.24,-0.92
1738247948.2781196,67168,0,0,,0.0,-0.69,0.27,0.65,0.16,0.52,1.04,-0.05,-10.37,1.49,-0.76,0.0,0.0,0.0,-9.67,1.23,-1.02
1738247948.2943099,67169,0,0,,0.0,-0.7,0.27,0.64,0.16,0.56,1.09,-0.06,-10.64,1.14,-0.94,0.0,0.0,0.0,-9.65,1.2,-1.24
1738247948.313607,67170,0,0,,0.0,-0.71,0.28,0.63,0.16,0.66,1.16,-0.1,-10.98,0.85,-0.35,0.0,0.0,0.0,-9.62,1.17,-1.48
1738247948.3279314,67171,0,0,,0.0,-0.71,0.28,0.63,0.17,0.67,1.24,-0.14,-10.56,0.92,-1.31,0.0,0.0,0.0,-9.6,1.14,-1.6
1738247948.3446305,67172,0,0,,0.0,-0.72,0.29,0.61,0.17,0.64,1.31,-0.18,-10.67,1.33,-0.93,0.0,0.0,0.0,-9.56,1.08,-1.86
1738247948.3634863,67173,0,0,,0.0,-0.72,0.29,0.6,0.17,0.59,1.39,-0.24,-10.56,1.52,-1.37,0.0,0.0,0.0,-9.51,1.01,-2.14
1738247948.3781335,67174,0,0,,0.0,-0.73,0.29,0.6,0.17,0.55,1.5,-0.31,-10.79,1.08,-0.67,0.0,0.0,0.0,-9.48,0.97,-2.28
1738247948.394488,67175,0,0,,0.0,-0.74,0.29,0.58,0.17,0.57,1.51,-0.38,-11.6,2.68,-1.85,0.0,0.0,0.0,-9.41,0.88,-2.58
1738247948.4135396,67176,0,0,,0.0,-0.75,0.3,0.57,0.17,0.33,1.67,-0.45,-12.5,1.23,0.18,0.0,0.0,0.0,-9.33,0.77,-2.88
1738247948.4279928,67177,0,0,,0.0,-0.75,0.3,0.56,0.17,0.33,1.74,-0.5,-9.44,0.62,-2.55,0.0,0.0,0.0,-9.29,0.72,-3.04
1738247948.4447606,67178,0,0,,0.0,-0.77,0.3,0.55,0.17,0.26,1.88,-0.55,-10.92,-0.76,-0.33,0.0,0.0,0.0,-9.18,0.6,-3.39
1738247948.4638524,67179,0,0,,0.0,-0.78,0.3,0.53,0.17,0.23,2.0,-0.64,-10.12,0.77,-0.19,0.0,0.0,0.0,-9.04,0.47,-3.75
1738247948.478332,67180,0,0,,0.0,-0.78,0.3,0.52,0.17,0.18,2.09,-0.61,-10.6,0.37,1.29,0.0,0.0,0.0,-8.97,0.41,-3.93
1738247948.4949481,67181,0,0,,0.0,-0.8,0.3,0.5,0.17,0.27,2.23,-0.54,-10.34,-0.84,1.2,0.0,0.0,0.0,-8.78,0.3,-4.34
1738247948.5138865,67182,0,0,,0.0,-0.81,0.3,0.48,0.16,0.47,2.73,-0.44,-10.52,-0.49,0.92,0.0,0.0,0.0,-8.53,0.19,-4.82
1738247948.5286634,67183,0,0,,0.0,-0.82,0.3,0.46,0.16,0.4,3.22,-0.14,-11.95,3.06,-3.21,0.0,0.0,0.0,-8.38,0.16,-5.08
1738247948.5449312,67184,0,0,,0.0,-0.83,0.31,0.43,0.15,0.21,3.47,0.06,-14.92,3.57,-3.45,0.0,0.0,0.0,-8.01,0.17,-5.65
1738247948.5641444,67185,0,0,,0.0,-0.85,0.32,0.41,0.14,-0.2,3.67,0.18,-17.06,2.08,-2.55,0.0,0.0,0.0,-7.59,0.22,-6.2
1738247948.5790114,67186,0,0,,0.0,-0.85,0.32,0.39,0.13,0.06,3.44,0.24,-15.68,1.71,-3.17,0.0,0.0,0.0,-7.38,0.23,-6.45
1738247948.594611,67187,0,0,,0.0,-0.86,0.33,0.37,0.13,0.36,3.22,0.26,-12.95,1.03,-0.2,0.0,0.0,0.0,-6.98,0.21,-6.87
1738247948.6144276,67188,0,0,,0.0,-0.87,0.34,0.35,0.12,0.63,2.4,0.29,-12.89,1.09,1.46,0.0,0.0,0.0,-6.69,0.15,-7.16
1738247948.628688,67189,0,0,,0.0,-0.87,0.34,0.34,0.12,0.85,1.47,0.27,-10.95,0.41,0.03,0.0,0.0,0.0,-6.59,0.11,-7.25
1738247948.6450336,67190,0,0,,0.0,-0.87,0.34,0.33,0.13,0.87,1.1,0.22,-9.94,1.37,-0.11,0.0,0.0,0.0,-6.46,0.02,-7.37
1738247948.663892,67191,0,0,,0.0,-0.87,0.35,0.33,0.13,0.62,0.34,0.23,-9.21,1.63,-0.45,0.0,0.0,0.0,-6.44,-0.01,-7.39
1738247948.6790025,67192,0,0,,0.0,-0.87,0.35,0.33,0.13,0.28,-0.56,0.27,-7.12,0.62,-0.86,0.0,0.0,0.0,-6.48,-0.01,-7.35
1738247948.6948454,67193,0,0,,0.0,-0.86,0.35,0.34,0.14,0.21,-1.02,0.26,-5.98,-0.14,-1.34,0.0,0.0,0.0,-6.65,-0.01,-7.19
1738247948.7143242,67194,0,0,,0.0,-0.86,0.35,0.36,0.14,0.03,-1.9,0.19,-5.78,-0.39,-1.49,0.0,0.0,0.0,-6.94,0.01,-6.92
1738247948.7289772,67195,0,0,,0.0,-0.85,0.35,0.37,0.15,-0.09,-2.69,0.09,-5.74,-0.59,-1.98,0.0,0.0,0.0,-7.12,0.02,-6.73
1738247948.7450216,67196,0,0,,0.0,-0.84,0.34,0.39,0.16,-0.17,-3.03,0.05,-6.45,-0.4,-2.55,0.0,0.0,0.0,-7.52,0.05,-6.28
1738247948.764363,67197,0,0,,0.0,-0.82,0.33,0.43,0.17,-0.42,-3.64,-0.03,-6.87,-0.31,-2.72,0.0,0.0,0.0,-7.96,0.1,-5.71
1738247948.779195,67198,0,0,,0.0,-0.82,0.33,0.44,0.17,-0.7,-4.16,-0.1,-8.05,-0.5,-3.33,0.0,0.0,0.0,-8.19,0.13,-5.39
1738247948.7953556,67199,0,0,,0.0,-0.8,0.32,0.48,0.18,-0.7,-4.16,-0.1,-8.4,-0.37,-3.78,0.0,0.0,0.0,-8.61,0.18,-4.67
1738247948.814282,67200,0,0,,0.0,-0.78,0.3,0.52,0.19,-0.85,-4.74,-0.2,-9.03,-0.33,-4.24,0.0,0.0,0.0,-9.01,0.21,-3.85
1738247948.829435,67201,0,0,,0.0,-0.77,0.29,0.54,0.19,-1.09,-4.98,-0.26,-9.91,0.4,-4.52,0.0,0.0,0.0,-9.19,0.23,-3.41
1738247948.8453906,67202,0,0,,0.0,-0.74,0.28,0.58,0.2,-1.09,-4.98,-0.26,-11.36,1.37,-5.63,0.0,0.0,0.0,-9.48,0.25,-2.49
1738247948.864484,67203,0,0,,0.0,-0.72,0.25,0.62,0.2,-1.45,-5.16,-0.29,-11.6,1.8,-6.23,0.0,0.0,0.0,-9.68,0.26,-1.52
1738247948.8791814,67204,0,0,,0.0,-0.7,0.24,0.64,0.2,-1.79,-5.27,-0.26,-12.61,1.36,-6.61,0.0,0.0,0.0,-9.74,0.25,-1.02
1738247948.895189,67205,0,0,,0.0,-0.67,0.22,0.68,0.2,-1.79,-5.27,-0.26,-13.03,0.43,-6.44,0.0,0.0,0.0,-9.8,0.22,-0.01
1738247948.9146104,67206,0,0,,0.0,-0.64,0.2,0.71,0.21,-1.42,-5.25,-0.29,-13.84,-0.33,-5.51,0.0,0.0,0.0,-9.75,0.15,0.97
1738247948.9292836,67207,0,0,,0.0,-0.62,0.19,0.73,0.21,-0.76,-5.18,-0.32,-13.77,-0.35,-5.24,0.0,0.0,0.0,-9.69,0.12,1.46
1738247948.9452658,67208,0,0,,0.0,-0.59,0.18,0.76,0.22,-0.43,-5.09,-0.33,-14.98,-0.2,-5.25,0.0,0.0,0.0,-9.5,0.04,2.4
1738247948.964496,67209,0,0,,0.0,-0.55,0.16,0.78,0.23,0.08,-4.82,-0.34,-14.56,-0.57,-5.08,0.0,0.0,0.0,-9.24,0.0,3.26
1738247948.97913,67210,0,0,,0.0,-0.54,0.16,0.79,0.24,0.51,-4.41,-0.33,-12.72,-0.29,-5.57,0.0,0.0,0.0,-9.1,-0.01,3.65
1738247948.9952235,67211,0,0,,0.0,-0.5,0.16,0.81,0.25,0.76,-4.12,-0.29,-10.09,0.86,-6.47,0.0,0.0,0.0,-8.79,0.0,4.33
1738247949.014802,67212,0,0,,0.0,-0.48,0.16,0.82,0.26,1.01,-3.34,-0.05,-7.57,1.18,-7.92,0.0,0.0,0.0,-8.51,0.1,4.85
1738247949.0288749,67213,0,0,,0.0,-0.47,0.16,0.83,0.26,0.95,-2.23,0.16,-7.3,1.07,-8.15,0.0,0.0,0.0,-8.41,0.16,5.03
1738247949.0452478,67214,0,0,,0.0,-0.46,0.16,0.83,0.27,0.78,-1.52,0.14,-7.23,1.38,-7.76,0.0,0.0,0.0,-8.29,0.24,5.21
1738247949.064526,67215,0,0,,0.0,-0.46,0.16,0.83,0.27,0.06,-0.02,0.07,-8.53,1.12,-6.13,0.0,0.0,0.0,-8.33,0.24,5.16
1738247949.079024,67216,0,0,,0.0,-0.46,0.16,0.83,0.26,-0.45,1.14,0.05,-9.25,0.92,-5.34,0.0,0.0,0.0,-8.38,0.22,5.07
1738247949.0950904,67217,0,0,,0.0,-0.48,0.16,0.82,0.26,-0.56,1.49,0.06,-11.03,0.88,-3.09,0.0,0.0,0.0,-8.53,0.18,4.81
1738247949.1143117,67218,0,0,,0.0,-0.49,0.16,0.82,0.25,-0.66,1.83,0.13,-16.37,0.26,21.06,0.0,0.0,0.0,-8.7,0.14,4.51
1738247949.1289728,67219,0,0,,0.0,-0.5,0.16,0.81,0.25,-0.53,1.59,0.17,-21.32,-3.43,30.55,0.0,0.0,0.0,-8.77,0.13,4.38
1738247949.1452487,67220,0,0,,0.0,-0.5,0.16,0.81,0.25,0.02,0.58,0.11,-10.08,-0.17,2.04,0.0,0.0,0.0,-8.78,0.16,4.34
1738247949.1646633,67221,0,0,,0.0,-0.5,0.16,0.81,0.24,-0.06,-0.16,0.52,-9.08,0.78,-1.11,0.0,0.0,0.0,-8.79,0.23,4.33
1738247949.1797945,67222,0,0,,0.0,-0.51,0.16,0.81,0.24,-0.6,0.81,0.36,-12.95,0.03,3.45,0.0,0.0,0.0,-8.82,0.24,4.27
1738247949.1961052,67223,0,0,,0.0,-0.51,0.16,0.81,0.23,-0.56,0.97,0.35,-11.67,1.28,0.14,0.0,0.0,0.0,-8.9,0.25,4.1
1738247949.21442,67224,0,0,,0.0,-0.52,0.16,0.81,0.22,-1.24,1.08,0.5,-10.4,1.01,0.96,0.0,0.0,0.0,-8.98,0.23,3.92
1738247949.2291129,67225,0,0,,0.0,-0.53,0.15,0.81,0.21,-1.37,0.92,0.41,-9.3,-0.76,3.55,0.0,0.0,0.0,-9.01,0.21,3.85
1738247949.2450602,67226,0,0,,0.0,-0.54,0.15,0.8,0.2,-1.07,0.85,0.44,-8.73,-0.14,2.11,0.0,0.0,0.0,-9.07,0.23,3.7
1738247949.2648206,67227,0,0,,0.0,-0.54,0.15,0.8,0.2,-0.17,0.9,0.46,-8.63,1.22,3.05,0.0,0.0,0.0,-9.13,0.31,3.55
1738247949.2795446,67228,0,0,,0.0,-0.54,0.16,0.8,0.2,0.52,0.71,0.39,-8.62,1.18,2.08,0.0,0.0,0.0,-9.15,0.36,3.49
1738247949.2958665,67229,0,0,,0.0,-0.55,0.17,0.8,0.2,0.52,0.7,0.42,-9.59,0.86,2.23,0.0,0.0,0.0,-9.19,0.47,3.36
1738247949.31467,67230,0,0,,0.0,-0.55,0.17,0.79,0.19,0.45,0.7,0.41,-9.9,1.17,2.54,0.0,0.0,0.0,-9.24,0.57,3.23
1738247949.3289888,67231,0,0,,0.0,-0.56,0.17,0.79,0.19,-0.03,0.74,0.4,-9.71,1.27,2.05,0.0,0.0,0.0,-9.26,0.6,3.16
1738247949.3459394,67232,0,0,,0.0,-0.56,0.18,0.79,0.19,-0.22,0.75,0.4,-9.68,1.24,1.44,0.0,0.0,0.0,-9.3,0.66,3.03
1738247949.3649971,67233,0,0,,0.0,-0.57,0.18,0.78,0.18,-0.4,0.76,0.4,-9.83,1.29,2.22,0.0,0.0,0.0,-9.34,0.7,2.9
1738247949.3790061,67234,0,0,,0.0,-0.57,0.18,0.78,0.18,-0.39,0.75,0.33,-9.59,1.2,2.12,0.0,0.0,0.0,-9.35,0.72,2.83
1738247949.3957663,67235,0,0,,0.0,-0.58,0.18,0.78,0.17,-0.32,0.73,0.3,-9.41,1.11,1.86,0.0,0.0,0.0,-9.39,0.76,2.7
1738247949.4149384,67236,0,0,,0.0,-0.58,0.18,0.78,0.17,-0.08,0.8,0.23,-9.71,0.88,2.6,0.0,0.0,0.0,-9.43,0.8,2.55
1738247949.4328208,67237,0,0,,0.0,-0.59,0.18,0.77,0.17,0.16,0.83,0.17,-9.46,0.79,1.71,0.0,0.0,0.0,-9.45,0.82,2.48
1738247949.4513779,67238,0,0,,0.0,-0.59,0.19,0.77,0.17,0.35,0.87,0.12,-9.63,0.93,1.45,0.0,0.0,0.0,-9.48,0.85,2.32
1738247949.4669337,67239,0,0,,0.0,-0.6,0.19,0.76,0.17,0.46,0.9,0.09,-9.63,1.16,0.82,0.0,0.0,0.0,-9.52,0.89,2.14
1738247949.4818223,67240,0,0,,0.0,-0.6,0.19,0.76,0.17,0.5,0.89,0.07,-9.65,1.27,0.99,0.0,0.0,0.0,-9.54,0.91,2.06
1738247949.4991367,67241,0,0,,0.0,-0.6,0.2,0.75,0.17,0.56,0.88,0.04,-9.83,1.03,1.58,0.0,0.0,0.0,-9.57,0.94,1.88
1738247949.5163565,67242,0,0,,0.0,-0.61,0.2,0.75,0.17,0.57,0.82,0.03,-9.61,1.25,0.7,0.0,0.0,0.0,-9.6,0.96,1.72
1738247949.5303023,67243,0,0,,0.0,-0.61,0.21,0.74,0.17,0.56,0.81,0.02,-9.92,1.01,1.17,0.0,0.0,0.0,-9.61,0.98,1.64
1738247949.5464535,67244,0,0,,0.0,-0.62,0.21,0.74,0.17,0.46,0.71,0.03,-9.79,1.16,0.07,0.0,0.0,0.0,-9.64,1.0,1.49
1738247949.5648198,67245,0,0,,0.0,-0.62,0.22,0.73,0.17,0.39,0.69,0.04,-10.11,1.13,0.77,0.0,0.0,0.0,-9.65,1.01,1.35
1738247949.5798264,67246,0,0,,0.0,-0.62,0.22,0.73,0.17,0.29,0.66,0.05,-9.96,1.12,0.4,0.0,0.0,0.0,-9.66,1.02,1.29
1738247949.5955608,67247,0,0,,0.0,-0.63,0.22,0.73,0.17,0.17,0.59,0.07,-9.81,1.16,0.31,0.0,0.0,0.0,-9.67,1.04,1.17
1738247949.6146748,67248,0,0,,0.0,-0.63,0.22,0.72,0.17,0.14,0.6,0.07,-9.89,1.29,0.69,0.0,0.0,0.0,-9.69,1.06,1.03
1738247949.6292486,67249,0,0,,0.0,-0.63,0.22,0.72,0.17,0.08,0.58,0.07,-9.63,1.33,0.47,0.0,0.0,0.0,-9.69,1.07,0.97
1738247949.6459818,67250,0,0,,0.0,-0.64,0.23,0.72,0.17,0.11,0.6,0.06,-9.82,1.19,0.67,0.0,0.0,0.0,-9.7,1.09,0.84
1738247949.664816,67251,0,0,,0.0,-0.64,0.23,0.71,0.17,0.18,0.61,0.04,-9.5,1.45,0.04,0.0,0.0,0.0,-9.71,1.1,0.72
1738247949.6795979,67252,0,0,,0.0,-0.64,0.23,0.71,0.17,0.27,0.65,0.04,-9.71,1.43,0.11,0.0,0.0,0.0,-9.72,1.11,0.65
1738247949.6959174,67253,0,0,,0.0,-0.65,0.23,0.71,0.17,0.3,0.67,0.01,-9.69,1.47,0.06,0.0,0.0,0.0,-9.72,1.12,0.52
1738247949.7152798,67254,0,0,,0.0,-0.65,0.24,0.7,0.17,0.29,0.66,0.01,-9.49,1.37,-0.15,0.0,0.0,0.0,-9.73,1.13,0.37
1738247949.7290773,67255,0,0,,0.0,-0.65,0.24,0.7,0.17,0.24,0.74,0.0,-9.99,1.31,0.0,0.0,0.0,0.0,-9.73,1.13,0.3
1738247949.7457912,67256,0,0,,0.0,-0.66,0.24,0.69,0.17,0.2,0.76,-0.01,-9.82,1.44,-0.45,0.0,0.0,0.0,-9.73,1.13,0.15
1738247949.7646577,67257,0,0,,0.0,-0.66,0.24,0.69,0.17,0.18,0.78,-0.01,-10.01,1.19,-0.23,0.0,0.0,0.0,-9.74,1.13,0.0
1738247949.7796915,67258,0,0,,0.0,-0.67,0.25,0.68,0.17,0.2,0.79,-0.03,-9.88,1.28,-0.54,0.0,0.0,0.0,-9.74,1.13,-0.06
1738247949.7958558,67259,0,0,,0.0,-0.67,0.25,0.68,0.17,0.23,0.85,-0.03,-10.15,1.21,-0.46,0.0,0.0,0.0,-9.73,1.12,-0.23
1738247949.8151727,67260,0,0,,0.0,-0.68,0.25,0.67,0.17,0.26,0.88,-0.04,-10.12,1.27,-0.64,0.0,0.0,0.0,-9.73,1.11,-0.4
1738247949.829269,67261,0,0,,0.0,-0.68,0.25,0.67,0.17,0.33,0.92,-0.05,-10.22,1.21,-0.67,0.0,0.0,0.0,-9.73,1.1,-0.49
1738247949.8465567,67262,0,0,,0.0,-0.68,0.26,0.66,0.17,0.4,1.02,-0.08,-10.54,1.17,-0.25,0.0,0.0,0.0,-9.72,1.08,-0.68
1738247949.8653204,67263,0,0,,0.0,-0.69,0.26,0.65,0.17,0.43,1.04,-0.08,-10.63,1.2,-0.95,0.0,0.0,0.0,-9.7,1.06,-0.9
1738247949.8796303,67264,0,0,,0.0,-0.69,0.26,0.65,0.17,0.42,1.18,-0.11,-10.7,0.99,-0.72,0.0,0.0,0.0,-9.69,1.05,-1.01
1738247949.8962815,67265,0,0,,0.0,-0.7,0.27,0.64,0.17,0.37,1.26,-0.15,-10.41,0.76,-1.36,0.0,0.0,0.0,-9.67,1.01,-1.25
1738247949.9151149,67266,0,0,,0.0,-0.71,0.27,0.63,0.17,0.35,1.32,-0.16,-10.67,0.61,-0.87,0.0,0.0,0.0,-9.63,0.97,-1.51
1738247949.9294567,67267,0,0,,0.0,-0.71,0.27,0.62,0.17,0.36,1.44,-0.21,-10.39,0.89,-1.15,0.0,0.0,0.0,-9.61,0.95,-1.65
1738247949.9466288,67268,0,0,,0.0,-0.72,0.27,0.61,0.17,0.38,1.51,-0.28,-10.82,1.26,-1.86,0.0,0.0,0.0,-9.57,0.88,-1.93
1738247949.9651713,67269,0,0,,0.0,-0.73,0.28,0.6,0.17,0.35,1.57,-0.35,-11.34,0.47,-0.1,0.0,0.0,0.0,-9.51,0.8,-2.24
1738247949.9801989,67270,0,0,,0.0,-0.74,0.28,0.59,0.17,0.2,1.65,-0.41,-9.93,0.55,-1.52,0.0,0.0,0.0,-9.47,0.76,-2.39
1738247949.9967306,67271,0,0,,0.0,-0.75,0.28,0.58,0.17,0.21,1.84,-0.44,-10.87,-0.61,-0.19,0.0,0.0,0.0,-9.39,0.67,-2.72
1738247950.0156767,67272,0,0,,0.0,-0.76,0.28,0.56,0.17,0.18,1.94,-0.53,-9.67,1.08,-1.45,0.0,0.0,0.0,-9.29,0.56,-3.07
1738247950.030374,67273,0,0,,0.0,-0.77,0.28,0.55,0.17,0.19,2.09,-0.58,-10.48,0.5,-0.33,0.0,0.0,0.0,-9.23,0.5,-3.26
1738247950.0477397,67274,0,0,,0.0,-0.78,0.28,0.53,0.16,0.22,2.33,-0.58,-11.06,-0.11,0.6,0.0,0.0,0.0,-9.08,0.38,-3.67
1738247950.066746,67275,0,0,,0.0,-0.79,0.28,0.51,0.16,0.42,2.46,-0.52,-11.32,0.37,2.11,0.0,0.0,0.0,-8.89,0.26,-4.11
1738247950.0807526,67276,0,0,,0.0,-0.8,0.28,0.5,0.16,0.76,2.75,-0.35,-11.28,1.33,1.73,0.0,0.0,0.0,-8.78,0.2,-4.35
1738247950.0976663,67277,0,0,,0.0,-0.81,0.29,0.48,0.16,0.81,3.07,-0.04,-11.86,3.04,-2.02,0.0,0.0,0.0,-8.51,0.1,-4.85
1738247950.1165245,67278,0,0,,0.0,-0.83,0.3,0.45,0.16,0.58,3.32,0.11,-16.58,2.56,-4.43,0.0,0.0,0.0,-8.17,0.09,-5.41
1738247950.1309557,67279,0,0,,0.0,-0.84,0.3,0.43,0.15,0.02,3.65,0.18,-17.84,2.18,-3.77,0.0,0.0,0.0,-7.98,0.1,-5.69
1738247950.1488335,67280,0,0,,0.0,-0.85,0.31,0.4,0.14,0.02,3.36,0.26,-14.44,1.47,-2.28,0.0,0.0,0.0,-7.58,0.13,-6.21
1738247950.1661944,67281,0,0,,0.0,-0.86,0.32,0.38,0.13,0.08,3.12,0.31,-12.29,0.52,-0.8,0.0,0.0,0.0,-7.21,0.17,-6.64
1738247950.1806679,67282,0,0,,0.0,-0.86,0.32,0.37,0.13,0.27,2.4,0.41,-11.96,1.02,1.01,0.0,0.0,0.0,-7.05,0.18,-6.8
1738247950.1986582,67283,0,0,,0.0,-0.87,0.33,0.36,0.12,0.19,1.52,0.46,-10.64,0.23,-0.4,0.0,0.0,0.0,-6.82,0.21,-7.04
1738247950.2164586,67284,0,0,,0.0,-0.87,0.33,0.35,0.12,0.21,0.77,0.44,-8.4,0.79,-0.77,0.0,0.0,0.0,-6.68,0.24,-7.16
1738247950.2311,67285,0,0,,0.0,-0.87,0.33,0.35,0.12,0.18,0.35,0.43,-7.74,0.41,-0.98,0.0,0.0,0.0,-6.66,0.25,-7.19
1738247950.2486856,67286,0,0,,0.0,-0.87,0.34,0.35,0.12,0.11,-0.53,0.38,-6.57,-0.64,-1.47,0.0,0.0,0.0,-6.7,0.29,-7.15
1738247950.2666523,67287,0,0,,0.0,-0.86,0.34,0.36,0.12,0.17,-1.4,0.24,-5.94,-0.91,-1.49,0.0,0.0,0.0,-6.86,0.3,-6.99
1738247950.281345,67288,0,0,,0.0,-0.86,0.34,0.37,0.13,0.17,-1.82,0.15,-5.48,-0.73,-1.81,0.0,0.0,0.0,-6.98,0.3,-6.87
1738247950.2984638,67289,0,0,,0.0,-0.85,0.34,0.38,0.14,0.15,-2.61,-0.0,-5.52,-0.64,-2.2,0.0,0.0,0.0,-7.29,0.29,-6.54
1738247950.3172047,67290,0,0,,0.0,-0.84,0.33,0.41,0.15,0.02,-3.32,-0.1,-6.5,-0.2,-2.52,0.0,0.0,0.0,-7.68,0.27,-6.08
1738247950.3314502,67291,0,0,,0.0,-0.83,0.33,0.42,0.15,-0.13,-3.62,-0.14,-6.75,-0.16,-2.75,0.0,0.0,0.0,-7.89,0.26,-5.81
1738247950.3490665,67292,0,0,,0.0,-0.81,0.32,0.46,0.16,-0.51,-4.17,-0.2,-7.63,-0.05,-3.39,0.0,0.0,0.0,-8.32,0.28,-5.17
1738247950.3669612,67293,0,0,,0.0,-0.79,0.31,0.49,0.17,-0.81,-4.58,-0.25,-8.25,0.31,-3.96,0.0,0.0,0.0,-8.74,0.31,-4.43
1738247950.3810964,67294,0,0,,0.0,-0.78,0.3,0.51,0.17,-0.99,-4.74,-0.27,-8.6,0.49,-4.44,0.0,0.0,0.0,-8.93,0.32,-4.02
1738247950.3987112,67295,0,0,,0.0,-0.76,0.28,0.55,0.18,-1.49,-4.95,-0.34,-10.25,0.79,-5.25,0.0,0.0,0.0,-9.28,0.36,-3.14
1738247950.4168894,67296,0,0,,0.0,-0.74,0.26,0.59,0.18,-1.75,-5.11,-0.44,-11.6,0.92,-6.59,0.0,0.0,0.0,-9.54,0.37,-2.21
1738247950.431368,67297,0,0,,0.0,-0.73,0.25,0.61,0.18,-1.72,-5.16,-0.48,-11.69,0.59,-7.1,0.0,0.0,0.0,-9.64,0.36,-1.72
1738247950.4491184,67298,0,0,,0.0,-0.7,0.23,0.65,0.19,-1.26,-5.15,-0.56,-12.55,-0.1,-7.3,0.0,0.0,0.0,-9.77,0.3,-0.74
1738247950.4669962,67299,0,0,,0.0,-0.67,0.21,0.69,0.2,-0.49,-5.03,-0.55,-13.45,0.3,-6.98,0.0,0.0,0.0,-9.8,0.19,0.21
1738247950.4818218,67300,0,0,,0.0,-0.65,0.2,0.7,0.21,-0.17,-4.92,-0.51,-13.51,0.74,-6.69,0.0,0.0,0.0,-9.78,0.14,0.68
1738247950.500067,67301,0,0,,0.0,-0.62,0.19,0.73,0.22,0.1,-4.62,-0.36,-13.34,1.4,-6.06,0.0,0.0,0.0,-9.67,0.07,1.57
1738247950.5175457,67302,0,0,,0.0,-0.59,0.18,0.75,0.23,0.04,-4.15,-0.18,-13.16,1.64,-5.87,0.0,0.0,0.0,-9.51,0.03,2.36
1738247950.532549,67303,0,0,,0.0,-0.57,0.18,0.77,0.23,-0.06,-3.88,-0.1,-12.64,1.44,-5.71,0.0,0.0,0.0,-9.42,0.02,2.72
1738247950.5498245,67304,0,0,,0.0,-0.55,0.17,0.78,0.24,-0.29,-3.32,0.03,-11.42,0.73,-6.19,0.0,0.0,0.0,-9.21,0.0,3.34
1738247950.5672896,67305,0,0,,0.0,-0.53,0.16,0.8,0.24,-0.25,-2.67,0.08,-10.36,0.16,-5.68,0.0,0.0,0.0,-9.02,0.0,3.84
1738247950.5821428,67306,0,0,,0.0,-0.52,0.15,0.81,0.24,-0.21,-2.33,0.07,-9.92,-0.07,-5.65,0.0,0.0,0.0,-8.93,0.0,4.05
1738247950.6002789,67307,0,0,,0.0,-0.51,0.15,0.81,0.24,-0.07,-1.61,0.04,-8.88,0.07,-5.53,0.0,0.0,0.0,-8.78,0.0,4.35
1738247950.6173995,67308,0,0,,0.0,-0.5,0.15,0.82,0.24,0.08,-0.82,0.08,-8.45,0.21,-5.63,0.0,0.0,0.0,-8.69,0.01,4.52
1738247950.6323268,67309,0,0,,0.0,-0.5,0.15,0.82,0.24,0.14,-0.43,0.11,-8.53,0.51,-5.46,0.0,0.0,0.0,-8.67,0.03,4.56
1738247950.6501968,67310,0,0,,0.0,-0.5,0.15,0.82,0.24,0.15,0.31,0.13,-8.57,1.13,-5.33,0.0,0.0,0.0,-8.69,0.06,4.54
1738247950.6671731,67311,0,0,,0.0,-0.5,0.15,0.82,0.24,-0.05,1.01,0.16,-9.15,0.97,-3.92,0.0,0.0,0.0,-8.76,0.09,4.4
1738247950.6826859,67312,0,0,,0.0,-0.51,0.15,0.81,0.24,-0.1,1.3,0.17,-12.92,0.68,9.11,0.0,0.0,0.0,-8.81,0.1,4.29
1738247950.7004952,67313,0,0,,0.0,-0.51,0.16,0.81,0.24,0.56,0.31,0.08,-13.86,-1.25,5.32,0.0,0.0,0.0,-8.87,0.14,4.16
1738247950.7177024,67314,0,0,,0.0,-0.51,0.16,0.81,0.24,0.27,0.25,0.41,-5.67,-0.26,-6.86,0.0,0.0,0.0,-8.88,0.22,4.14
1738247950.732217,67315,0,0,,0.0,-0.51,0.17,0.81,0.23,0.18,0.77,0.32,-8.08,1.56,-2.88,0.0,0.0,0.0,-8.91,0.26,4.07
1738247950.7509048,67316,0,0,,0.0,-0.52,0.17,0.8,0.23,-0.05,1.19,0.37,-12.66,1.99,1.24,0.0,0.0,0.0,-9.0,0.32,3.87
1738247950.7677221,67317,0,0,,0.0,-0.53,0.17,0.8,0.22,-1.36,1.2,0.52,-9.26,1.37,1.34,0.0,0.0,0.0,-9.08,0.33,3.67
1738247950.7826881,67318,0,0,,0.0,-0.54,0.17,0.8,0.22,-1.63,1.09,0.46,-9.03,0.06,1.73,0.0,0.0,0.0,-9.12,0.32,3.58
1738247950.8007352,67319,0,0,,0.0,-0.55,0.16,0.8,0.2,-1.09,0.92,0.43,-9.75,-2.08,2.95,0.0,0.0,0.0,-9.18,0.3,3.42
1738247950.8180833,67320,0,0,,0.0,-0.55,0.16,0.79,0.2,0.11,0.84,0.45,-8.94,0.43,1.52,0.0,0.0,0.0,-9.23,0.37,3.26
1738247950.8325982,67321,0,0,,0.0,-0.56,0.17,0.79,0.2,0.54,0.77,0.38,-9.19,1.08,2.07,0.0,0.0,0.0,-9.26,0.42,3.19
1738247950.8512118,67322,0,0,,0.0,-0.56,0.18,0.79,0.2,0.75,0.6,0.39,-9.76,0.72,1.53,0.0,0.0,0.0,-9.29,0.53,3.07
1738247950.8680537,67323,0,0,,0.0,-0.56,0.19,0.78,0.2,0.6,0.55,0.37,-10.58,0.72,1.34,0.0,0.0,0.0,-9.32,0.64,2.96
1738247950.8828833,67324,0,0,,0.0,-0.56,0.19,0.78,0.2,0.36,0.53,0.36,-10.24,1.11,1.73,0.0,0.0,0.0,-9.33,0.68,2.91
1738247950.9011672,67325,0,0,,0.0,-0.57,0.19,0.78,0.19,-0.17,0.53,0.37,-9.61,1.48,1.58,0.0,0.0,0.0,-9.36,0.75,2.81
1738247950.917818,67326,0,0,,0.0,-0.57,0.19,0.78,0.19,-0.4,0.53,0.33,-9.14,1.64,1.99,0.0,0.0,0.0,-9.38,0.79,2.72
1738247950.9329479,67327,0,0,,0.0,-0.57,0.19,0.78,0.19,-0.41,0.55,0.31,-8.97,1.62,1.92,0.0,0.0,0.0,-9.39,0.81,2.68
1738247950.9514217,67328,0,0,,0.0,-0.58,0.19,0.77,0.18,-0.15,0.65,0.24,-9.36,0.72,3.0,0.0,0.0,0.0,-9.42,0.84,2.56
1738247950.9684012,67329,0,0,,0.0,-0.58,0.2,0.77,0.18,0.3,0.69,0.17,-9.23,0.85,2.2,0.0,0.0,0.0,-9.45,0.89,2.44
1738247950.983678,67330,0,0,,0.0,-0.59,0.2,0.76,0.18,0.46,0.73,0.14,-9.43,1.26,1.97,0.0,0.0,0.0,-9.47,0.91,2.37
1738247951.0019138,67331,0,0,,0.0,-0.59,0.2,0.76,0.18,0.53,0.78,0.11,-9.42,1.33,1.43,0.0,0.0,0.0,-9.5,0.96,2.21
1738247951.0184817,67332,0,0,,0.0,-0.59,0.21,0.76,0.18,0.46,0.82,0.08,-9.74,1.41,1.58,0.0,0.0,0.0,-9.53,0.99,2.06
1738247951.0358882,67333,0,0,,0.0,-0.6,0.21,0.75,0.18,0.43,0.81,0.07,-9.58,1.32,1.16,0.0,0.0,0.0,-9.56,1.02,1.9
1738247951.0533984,67334,0,0,,0.0,-0.6,0.22,0.75,0.18,0.41,0.77,0.06,-9.45,1.32,0.54,0.0,0.0,0.0,-9.57,1.03,1.82
1738247951.0698302,67335,0,0,,0.0,-0.6,0.22,0.74,0.18,0.4,0.77,0.04,-9.97,1.03,1.44,0.0,0.0,0.0,-9.6,1.05,1.67
1738247951.0844066,67336,0,0,,0.0,-0.61,0.23,0.74,0.18,0.4,0.71,0.03,-9.82,0.97,0.67,0.0,0.0,0.0,-9.61,1.06,1.6
1738247951.1030521,67337,0,0,,0.0,-0.61,0.23,0.74,0.18,0.32,0.7,0.03,-9.92,1.16,0.45,0.0,0.0,0.0,-9.63,1.08,1.46
1738247951.118738,67338,0,0,,0.0,-0.62,0.23,0.73,0.18,0.15,0.64,0.04,-9.88,1.31,0.59,0.0,0.0,0.0,-9.65,1.09,1.34
1738247951.1342773,67339,0,0,,0.0,-0.62,0.23,0.73,0.18,0.07,0.63,0.04,-9.78,1.22,0.46,0.0,0.0,0.0,-9.65,1.1,1.28
1738247951.152649,67340,0,0,,0.0,-0.62,0.23,0.73,0.18,0.03,0.65,0.03,-9.98,0.91,1.33,0.0,0.0,0.0,-9.67,1.1,1.16
1738247951.1692376,67341,0,0,,0.0,-0.63,0.23,0.72,0.18,0.1,0.68,0.03,-9.79,1.03,0.42,0.0,0.0,0.0,-9.68,1.11,1.03
1738247951.1843255,67342,0,0,,0.0,-0.63,0.24,0.72,0.18,0.18,0.7,0.01,-9.84,1.1,0.71,0.0,0.0,0.0,-9.69,1.11,0.96
1738247951.202802,67343,0,0,,0.0,-0.63,0.24,0.71,0.18,0.34,0.7,-0.01,-9.56,1.35,0.31,0.0,0.0,0.0,-9.7,1.12,0.82
1738247951.2194219,67344,0,0,,0.0,-0.64,0.24,0.71,0.18,0.39,0.74,-0.02,-9.71,1.39,-0.02,0.0,0.0,0.0,-9.71,1.12,0.67
1738247951.2341707,67345,0,0,,0.0,-0.64,0.25,0.7,0.18,0.39,0.77,-0.03,-9.79,1.43,0.13,0.0,0.0,0.0,-9.72,1.12,0.6
1738247951.2530653,67346,0,0,,0.0,-0.64,0.25,0.7,0.18,0.34,0.79,-0.03,-9.64,1.47,-0.25,0.0,0.0,0.0,-9.73,1.12,0.44
1738247951.2695642,67347,0,0,,0.0,-0.65,0.25,0.69,0.18,0.27,0.83,-0.04,-9.76,1.48,-0.38,0.0,0.0,0.0,-9.73,1.11,0.28
1738247951.2844412,67348,0,0,,0.0,-0.66,0.25,0.69,0.18,0.24,0.84,-0.03,-9.75,1.3,-0.18,0.0,0.0,0.0,-9.74,1.11,0.2
1738247951.3030028,67349,0,0,,0.0,-0.66,0.26,0.68,0.18,0.27,0.92,-0.04,-10.3,0.95,0.21,0.0,0.0,0.0,-9.74,1.11,0.02
1738247951.3197381,67350,0,0,,0.0,-0.66,0.26,0.68,0.18,0.38,0.96,-0.05,-10.07,1.14,-0.17,0.0,0.0,0.0,-9.74,1.09,-0.16
1738247951.334355,67351,0,0,,0.0,-0.67,0.26,0.67,0.18,0.43,1.0,-0.06,-10.18,1.2,-0.57,0.0,0.0,0.0,-9.74,1.09,-0.26
1738247951.3532748,67352,0,0,,0.0,-0.67,0.27,0.67,0.18,0.53,1.09,-0.08,-10.64,1.11,-0.18,0.0,0.0,0.0,-9.73,1.07,-0.47
1738247951.369973,67353,0,0,,0.0,-0.68,0.27,0.66,0.18,0.53,1.16,-0.09,-10.38,1.1,-0.78,0.0,0.0,0.0,-9.72,1.05,-0.7
1738247951.3848782,67354,0,0,,0.0,-0.69,0.28,0.65,0.18,0.49,1.23,-0.1,-10.71,0.74,-0.43,0.0,0.0,0.0,-9.7,1.02,-0.94
1738247951.4032018,67355,0,0,,0.0,-0.69,0.28,0.64,0.18,0.4,1.33,-0.13,-10.66,0.63,-0.96,0.0,0.0,0.0,-9.69,1.01,-1.07
1738247951.4203568,67356,0,0,,0.0,-0.7,0.28,0.63,0.18,0.31,1.46,-0.17,-10.68,0.51,-0.42,0.0,0.0,0.0,-9.66,0.97,-1.35
1738247951.4349062,67357,0,0,,0.0,-0.71,0.28,0.62,0.18,0.27,1.5,-0.19,-10.49,0.82,-0.9,0.0,0.0,0.0,-9.62,0.92,-1.63
1738247951.4535859,67358,0,0,,0.0,-0.71,0.29,0.61,0.18,0.1,1.63,-0.26,-10.58,0.96,-1.08,0.0,0.0,0.0,-9.59,0.9,-1.79
1738247951.4698076,67359,0,0,,0.0,-0.72,0.29,0.6,0.18,0.06,1.67,-0.39,-10.76,2.77,-2.18,0.0,0.0,0.0,-9.54,0.83,-2.1
1738247951.4853437,67360,0,0,,0.0,-0.74,0.29,0.59,0.17,-0.06,1.78,-0.43,-11.99,1.84,-0.68,0.0,0.0,0.0,-9.46,0.75,-2.43
1738247951.5038884,67361,0,0,,0.0,-0.75,0.28,0.57,0.17,-0.15,1.85,-0.49,-10.59,0.23,-0.79,0.0,0.0,0.0,-9.42,0.71,-2.6
1738247951.5201418,67362,0,0,,0.0,-0.76,0.28,0.57,0.17,0.05,2.09,-0.57,-10.51,-0.45,0.11,0.0,0.0,0.0,-9.32,0.61,-2.96
1738247951.5353498,67363,0,0,,0.0,-0.77,0.28,0.55,0.17,0.12,2.19,-0.64,-10.46,-0.16,-0.16,0.0,0.0,0.0,-9.19,0.49,-3.37
1738247951.5536692,67364,0,0,,0.0,-0.78,0.29,0.53,0.17,0.33,2.43,-0.63,-11.05,-0.15,0.3,0.0,0.0,0.0,-9.11,0.42,-3.58
1738247951.5710306,67365,0,0,,0.0,-0.79,0.29,0.51,0.17,0.55,2.73,-0.55,-11.06,-0.3,-0.15,0.0,0.0,0.0,-8.92,0.28,-4.05
1738247951.585166,67366,0,0,,0.0,-0.8,0.29,0.49,0.17,0.75,2.86,-0.45,-11.59,0.67,1.02,0.0,0.0,0.0,-8.68,0.15,-4.55
1738247951.6037228,67367,0,0,,0.0,-0.81,0.3,0.48,0.17,0.96,2.98,-0.11,-12.07,3.69,-0.27,0.0,0.0,0.0,-8.54,0.09,-4.8
1738247951.6204457,67368,0,0,,0.0,-0.82,0.31,0.45,0.16,0.63,3.27,0.13,-15.22,1.46,-1.79,0.0,0.0,0.0,-8.23,0.04,-5.32
1738247951.6356366,67369,0,0,,0.0,-0.84,0.31,0.42,0.16,0.51,3.36,0.1,-15.85,1.1,-2.11,0.0,0.0,0.0,-7.87,0.0,-5.84
1738247951.6539137,67370,0,0,,0.0,-0.85,0.32,0.39,0.15,0.64,3.24,0.06,-15.67,1.76,-3.45,0.0,0.0,0.0,-7.68,-0.03,-6.08
1738247951.671012,67371,0,0,,0.0,-0.85,0.33,0.38,0.15,0.6,2.77,0.12,-13.14,2.27,-1.8,0.0,0.0,0.0,-7.33,-0.09,-6.5
1738247951.685644,67372,0,0,,0.0,-0.86,0.33,0.36,0.15,0.36,2.41,0.19,-11.27,3.1,-0.17,0.0,0.0,0.0,-7.05,-0.08,-6.81
1738247951.704432,67373,0,0,,0.0,-0.86,0.33,0.35,0.14,-0.29,1.53,0.34,-10.17,1.36,0.36,0.0,0.0,0.0,-6.94,-0.04,-6.91
1738247951.7211058,67374,0,0,,0.0,-0.86,0.33,0.35,0.13,-0.78,0.77,0.27,-9.11,-0.13,-1.0,0.0,0.0,0.0,-6.82,0.09,-7.04
1738247951.735941,67375,0,0,,0.0,-0.86,0.33,0.35,0.12,-0.7,0.39,0.24,-8.36,0.4,-1.25,0.0,0.0,0.0,-6.79,0.21,-7.06
1738247951.754727,67376,0,0,,0.0,-0.86,0.33,0.36,0.12,-0.58,-0.44,0.28,-6.93,-1.1,-1.8,0.0,0.0,0.0,-6.82,0.27,-7.03
1738247951.7712219,67377,0,0,,0.0,-0.86,0.33,0.37,0.12,-0.17,-1.32,0.17,-6.03,-1.3,-1.96,0.0,0.0,0.0,-6.97,0.34,-6.88
1738247951.7860625,67378,0,0,,0.0,-0.85,0.33,0.38,0.13,0.06,-1.73,0.09,-5.71,-0.9,-1.99,0.0,0.0,0.0,-7.22,0.33,-6.62
1738247951.8044164,67379,0,0,,0.0,-0.84,0.33,0.4,0.14,0.26,-2.52,-0.06,-5.49,-0.82,-2.44,0.0,0.0,0.0,-7.38,0.31,-6.44
1738247951.821515,67380,0,0,,0.0,-0.84,0.33,0.42,0.15,0.28,-3.21,-0.15,-6.0,-0.26,-2.55,0.0,0.0,0.0,-7.75,0.25,-6.0
1738247951.8362823,67381,0,0,,0.0,-0.82,0.32,0.44,0.16,0.18,-3.52,-0.18,-6.21,-0.08,-2.64,0.0,0.0,0.0,-8.15,0.21,-5.43
1738247951.8547025,67382,0,0,,0.0,-0.8,0.31,0.48,0.17,-0.22,-4.09,-0.23,-6.74,0.27,-3.04,0.0,0.0,0.0,-8.36,0.2,-5.1
1738247951.8708754,67383,0,0,,0.0,-0.79,0.3,0.5,0.18,-0.73,-4.53,-0.25,-7.77,0.72,-3.81,0.0,0.0,0.0,-8.77,0.22,-4.37
1738247951.8860996,67384,0,0,,0.0,-0.77,0.29,0.54,0.18,-1.03,-4.7,-0.26,-8.26,0.91,-4.14,0.0,0.0,0.0,-9.14,0.26,-3.53
1738247951.9048676,67385,0,0,,0.0,-0.75,0.27,0.58,0.18,-1.69,-4.96,-0.32,-10.15,1.35,-4.93,0.0,0.0,0.0,-9.3,0.29,-3.09
1738247951.9212565,67386,0,0,,0.0,-0.74,0.25,0.6,0.18,-2.07,-5.16,-0.42,-11.34,1.07,-5.23,0.0,0.0,0.0,-9.56,0.32,-2.14
1738247951.936499,67387,0,0,,0.0,-0.71,0.23,0.64,0.19,-2.05,-5.25,-0.47,-12.66,0.0,-6.06,0.0,0.0,0.0,-9.73,0.29,-1.14
1738247951.9544942,67388,0,0,,0.0,-0.68,0.21,0.68,0.19,-1.52,-5.33,-0.57,-13.31,-0.25,-6.18,0.0,0.0,0.0,-9.78,0.25,-0.63
1738247951.9718587,67389,0,0,,0.0,-0.66,0.2,0.69,0.2,-0.63,-5.23,-0.59,-14.51,0.21,-6.87,0.0,0.0,0.0,-9.79,0.14,0.36
1738247951.9863713,67390,0,0,,0.0,-0.63,0.19,0.72,0.21,-0.2,-5.12,-0.56,-14.72,1.19,-7.0,0.0,0.0,0.0,-9.71,0.04,1.31
1738247952.0048695,67391,0,0,,0.0,-0.6,0.18,0.75,0.22,0.21,-4.83,-0.37,-13.93,1.12,-6.33,0.0,0.0,0.0,-9.64,0.01,1.76
1738247952.0218034,67392,0,0,,0.0,-0.58,0.17,0.76,0.23,0.48,-4.42,-0.21,-13.41,0.42,-5.87,0.0,0.0,0.0,-9.45,-0.01,2.6
1738247952.036531,67393,0,0,,0.0,-0.55,0.17,0.78,0.24,0.66,-4.18,-0.18,-12.61,-0.5,-5.63,0.0,0.0,0.0,-9.22,0.0,3.33
1738247952.0551975,67394,0,0,,0.0,-0.52,0.17,0.8,0.25,0.99,-3.64,-0.12,-11.86,-0.53,-5.63,0.0,0.0,0.0,-9.09,0.02,3.66
1738247952.0716338,67395,0,0,,0.0,-0.51,0.17,0.81,0.26,1.15,-2.99,-0.03,-9.87,0.23,-5.82,0.0,0.0,0.0,-8.85,0.09,4.21
1738247952.0863113,67396,0,0,,0.0,-0.49,0.17,0.82,0.26,1.14,-2.59,0.03,-8.32,1.62,-7.08,0.0,0.0,0.0,-8.65,0.2,4.6
1738247952.1048505,67397,0,0,,0.0,-0.47,0.17,0.82,0.27,0.73,-1.56,0.16,-7.81,1.5,-6.96,0.0,0.0,0.0,-8.58,0.24,4.73
1738247952.1216037,67398,0,0,,0.0,-0.47,0.17,0.82,0.27,-0.08,-0.39,0.13,-7.64,1.1,-7.03,0.0,0.0,0.0,-8.52,0.28,4.84
1738247952.1363885,67399,0,0,,0.0,-0.48,0.17,0.82,0.26,-0.4,0.18,0.11,-8.88,0.48,-6.36,0.0,0.0,0.0,-8.55,0.25,4.77
1738247952.1553915,67400,0,0,,0.0,-0.49,0.17,0.82,0.26,-0.75,1.07,0.12,-9.39,0.66,-5.86,0.0,0.0,0.0,-8.6,0.22,4.69
1738247952.171364,67401,0,0,,0.0,-0.5,0.17,0.81,0.25,-0.9,1.56,0.13,-11.3,1.09,-0.13,0.0,0.0,0.0,-8.73,0.17,4.45
1738247952.1867442,67402,0,0,,0.0,-0.51,0.16,0.81,0.25,-0.91,1.57,0.15,-19.45,-1.49,26.97,0.0,0.0,0.0,-8.84,0.13,4.23
1738247952.205181,67403,0,0,,0.0,-0.51,0.16,0.81,0.24,-0.27,0.08,0.15,-19.2,-3.38,16.98,0.0,0.0,0.0,-8.84,0.13,4.22
1738247952.2214677,67404,0,0,,0.0,-0.51,0.16,0.81,0.24,-0.03,0.16,0.48,-4.53,-1.3,-6.98,0.0,0.0,0.0,-8.84,0.19,4.22
1738247952.2369134,67405,0,0,,0.0,-0.51,0.17,0.81,0.24,-0.03,0.75,0.3,-12.44,-0.27,3.98,0.0,0.0,0.0,-8.91,0.23,4.07
1738247952.2551763,67406,0,0,,0.0,-0.52,0.17,0.8,0.23,-0.42,1.03,0.35,-11.65,0.55,1.67,0.0,0.0,0.0,-8.95,0.24,3.98
1738247952.271981,67407,0,0,,0.0,-0.53,0.16,0.8,0.22,-1.22,1.03,0.42,-10.09,1.01,1.76,0.0,0.0,0.0,-9.03,0.24,3.8
1738247952.2867274,67408,0,0,,0.0,-0.54,0.16,0.8,0.21,-1.23,0.97,0.39,-9.75,0.11,3.0,0.0,0.0,0.0,-9.1,0.23,3.64
1738247952.3051212,67409,0,0,,0.0,-0.55,0.16,0.8,0.2,-0.73,0.97,0.45,-9.37,-0.55,3.01,0.0,0.0,0.0,-9.13,0.24,3.55
1738247952.3216574,67410,0,0,,0.0,-0.55,0.16,0.79,0.2,-0.02,0.93,0.45,-8.83,0.85,2.64,0.0,0.0,0.0,-9.19,0.31,3.38
1738247952.3373053,67411,0,0,,0.0,-0.55,0.17,0.79,0.2,0.27,0.83,0.39,-9.11,0.97,1.92,0.0,0.0,0.0,-9.24,0.41,3.24
1738247952.3551056,67412,0,0,,0.0,-0.56,0.17,0.79,0.2,0.54,0.74,0.41,-9.71,0.73,1.61,0.0,0.0,0.0,-9.28,0.51,3.1
1738247952.3717546,67413,0,0,,0.0,-0.56,0.18,0.78,0.2,0.36,0.74,0.38,-10.54,0.7,1.87,0.0,0.0,0.0,-9.3,0.56,3.03
1738247952.3872771,67414,0,0,,0.0,-0.56,0.18,0.78,0.19,0.13,0.71,0.36,-10.04,1.0,0.95,0.0,0.0,0.0,-9.34,0.62,2.91
1738247952.405385,67415,0,0,,0.0,-0.57,0.18,0.78,0.19,-0.2,0.68,0.37,-9.97,1.07,0.89,0.0,0.0,0.0,-9.37,0.67,2.79
1738247952.4221816,67416,0,0,,0.0,-0.57,0.18,0.78,0.19,-0.33,0.61,0.34,-10.05,1.09,1.33,0.0,0.0,0.0,-9.38,0.7,2.74
1738247952.436544,67417,0,0,,0.0,-0.58,0.18,0.78,0.18,-0.34,0.57,0.32,-9.82,0.86,1.4,0.0,0.0,0.0,-9.41,0.74,2.64
1738247952.4551663,67418,0,0,,0.0,-0.58,0.19,0.77,0.18,-0.12,0.53,0.26,-9.45,0.76,1.99,0.0,0.0,0.0,-9.42,0.76,2.59
1738247952.472119,67419,0,0,,0.0,-0.58,0.19,0.77,0.18,0.19,0.59,0.21,-9.27,0.88,2.0,0.0,0.0,0.0,-9.45,0.8,2.48
1738247952.4869561,67420,0,0,,0.0,-0.59,0.19,0.77,0.18,0.3,0.62,0.19,-9.31,0.93,2.41,0.0,0.0,0.0,-9.47,0.85,2.36
1738247952.5050426,67421,0,0,,0.0,-0.59,0.2,0.76,0.18,0.42,0.66,0.15,-9.13,1.21,1.77,0.0,0.0,0.0,-9.49,0.87,2.3
1738247952.5224154,67422,0,0,,0.0,-0.59,0.2,0.76,0.18,0.47,0.73,0.12,-9.65,1.16,1.83,0.0,0.0,0.0,-9.52,0.92,2.16
1738247952.54178,67423,0,0,,0.0,-0.6,0.2,0.76,0.18,0.47,0.71,0.1,-9.66,1.24,1.15,0.0,0.0,0.0,-9.54,0.96,2.02
1738247952.5601943,67424,0,0,,0.0,-0.6,0.21,0.75,0.18,0.54,0.72,0.08,-9.92,0.78,1.35,0.0,0.0,0.0,-9.57,0.99,1.87
1738247952.574718,67425,0,0,,0.0,-0.6,0.22,0.75,0.18,0.57,0.7,0.06,-9.94,0.97,1.37,0.0,0.0,0.0,-9.58,1.01,1.8
1738247952.5931041,67426,0,0,,0.0,-0.61,0.22,0.74,0.18,0.49,0.65,0.06,-9.52,1.45,0.76,0.0,0.0,0.0,-9.6,1.04,1.67
1738247952.613176,67427,0,0,,0.0,-0.61,0.22,0.74,0.18,0.3,0.65,0.07,-9.87,1.47,1.2,0.0,0.0,0.0,-9.62,1.06,1.54
1738247952.6275706,67428,0,0,,0.0,-0.61,0.22,0.74,0.18,0.1,0.66,0.08,-9.7,1.39,0.9,0.0,0.0,0.0,-9.64,1.08,1.42
1738247952.6450799,67429,0,0,,0.0,-0.62,0.23,0.73,0.18,0.08,0.67,0.08,-9.79,1.14,1.13,0.0,0.0,0.0,-9.64,1.09,1.36
1738247952.6653578,67430,0,0,,0.0,-0.62,0.23,0.73,0.18,0.09,0.69,0.07,-9.5,1.22,0.61,0.0,0.0,0.0,-9.66,1.11,1.22
1738247952.6794116,67431,0,0,,0.0,-0.63,0.23,0.72,0.18,0.19,0.75,0.06,-9.84,0.97,1.04,0.0,0.0,0.0,-9.68,1.12,1.08
1738247952.69644,67432,0,0,,0.0,-0.63,0.23,0.72,0.18,0.26,0.74,0.04,-10.01,1.16,1.08,0.0,0.0,0.0,-9.69,1.14,0.93
1738247952.7155662,67433,0,0,,0.0,-0.64,0.24,0.71,0.18,0.32,0.79,0.03,-9.59,1.49,0.27,0.0,0.0,0.0,-9.7,1.15,0.85
1738247952.7302806,67434,0,0,,0.0,-0.64,0.24,0.71,0.17,0.3,0.8,0.03,-9.46,1.59,0.24,0.0,0.0,0.0,-9.71,1.16,0.69
1738247952.7462478,67435,0,0,,0.0,-0.64,0.24,0.7,0.17,0.26,0.81,0.03,-9.47,1.56,-0.11,0.0,0.0,0.0,-9.72,1.16,0.53
1738247952.7654722,67436,0,0,,0.0,-0.65,0.25,0.7,0.17,0.21,0.9,0.01,-9.9,1.29,0.27,0.0,0.0,0.0,-9.72,1.17,0.44
1738247952.7804794,67437,0,0,,0.0,-0.65,0.25,0.7,0.17,0.22,0.92,-0.0,-9.64,1.35,0.02,0.0,0.0,0.0,-9.73,1.17,0.27
1738247952.7967978,67438,0,0,,0.0,-0.66,0.25,0.69,0.17,0.23,0.96,-0.0,-9.86,1.36,0.0,0.0,0.0,0.0,-9.73,1.17,0.08
1738247952.8155537,67439,0,0,,0.0,-0.66,0.26,0.68,0.17,0.31,1.04,-0.03,-9.87,1.41,-0.15,0.0,0.0,0.0,-9.73,1.17,-0.01
1738247952.830473,67440,0,0,,0.0,-0.67,0.26,0.68,0.17,0.38,1.14,-0.06,-10.01,1.46,-0.25,0.0,0.0,0.0,-9.73,1.16,-0.23
1738247952.8468602,67441,0,0,,0.0,-0.68,0.26,0.67,0.17,0.42,1.18,-0.08,-10.31,1.47,-0.15,0.0,0.0,0.0,-9.72,1.14,-0.47
1738247952.8654034,67442,0,0,,0.0,-0.68,0.27,0.66,0.17,0.48,1.24,-0.09,-10.37,1.43,-0.9,0.0,0.0,0.0,-9.71,1.11,-0.72
1738247952.8804812,67443,0,0,,0.0,-0.69,0.27,0.65,0.17,0.51,1.37,-0.13,-10.49,0.98,-0.03,0.0,0.0,0.0,-9.7,1.1,-0.85
1738247952.8968105,67444,0,0,,0.0,-0.7,0.27,0.64,0.17,0.48,1.4,-0.15,-10.06,1.3,-0.62,0.0,0.0,0.0,-9.68,1.06,-1.13
1738247952.916165,67445,0,0,,0.0,-0.71,0.28,0.63,0.17,0.29,1.55,-0.16,-10.39,0.78,-1.17,0.0,0.0,0.0,-9.64,1.02,-1.43
1738247952.930761,67446,0,0,,0.0,-0.71,0.28,0.62,0.17,0.15,1.69,-0.22,-10.6,1.04,-1.39,0.0,0.0,0.0,-9.62,1.0,-1.59
1738247952.9465384,67447,0,0,,0.0,-0.72,0.28,0.61,0.17,0.11,1.76,-0.24,-11.19,1.34,-1.61,0.0,0.0,0.0,-9.56,0.95,-1.93
1738247952.966262,67448,0,0,,0.0,-0.73,0.28,0.6,0.17,0.05,1.9,-0.36,-11.5,2.28,-1.63,0.0,0.0,0.0,-9.49,0.88,-2.29
1738247952.9810941,67449,0,0,,0.0,-0.74,0.28,0.59,0.16,-0.11,1.99,-0.42,-10.7,0.76,-1.51,0.0,0.0,0.0,-9.45,0.84,-2.47
1738247952.9971223,67450,0,0,,0.0,-0.75,0.28,0.57,0.16,-0.07,2.08,-0.43,-10.75,0.35,-1.26,0.0,0.0,0.0,-9.34,0.76,-2.86
1738247953.0158122,67451,0,0,,0.0,-0.77,0.28,0.55,0.16,0.06,2.38,-0.58,-11.82,-0.26,0.14,0.0,0.0,0.0,-9.21,0.65,-3.3
1738247953.0309656,67452,0,0,,0.0,-0.78,0.28,0.54,0.16,0.33,2.59,-0.53,-12.42,0.44,0.81,0.0,0.0,0.0,-9.12,0.59,-3.53
1738247953.0474281,67453,0,0,,0.0,-0.79,0.28,0.52,0.16,0.43,2.66,-0.52,-12.54,0.39,1.07,0.0,0.0,0.0,-8.93,0.47,-4.0
1738247953.0667555,67454,0,0,,0.0,-0.8,0.29,0.5,0.16,0.86,2.76,-0.27,-12.5,-0.22,1.69,0.0,0.0,0.0,-8.7,0.36,-4.49
1738247953.08073,67455,0,0,,0.0,-0.81,0.29,0.48,0.16,1.08,3.08,-0.03,-12.53,1.14,-2.03,0.0,0.0,0.0,-8.57,0.3,-4.75
1738247953.0976686,67456,0,0,,0.0,-0.82,0.3,0.45,0.15,1.06,3.34,0.06,-15.6,2.38,-3.38,0.0,0.0,0.0,-8.23,0.22,-5.31
1738247953.1159918,67457,0,0,,0.0,-0.84,0.31,0.42,0.15,0.83,3.58,0.11,-17.23,2.39,-3.21,0.0,0.0,0.0,-7.85,0.16,-5.87
1738247953.130928,67458,0,0,,0.0,-0.84,0.32,0.41,0.14,0.34,3.34,0.18,-14.02,2.45,-3.28,0.0,0.0,0.0,-7.65,0.15,-6.12
1738247953.147475,67459,0,0,,0.0,-0.85,0.32,0.38,0.13,0.1,3.15,0.22,-12.21,1.12,-1.68,0.0,0.0,0.0,-7.28,0.19,-6.56
1738247953.1660118,67460,0,0,,0.0,-0.86,0.33,0.37,0.12,-0.3,2.54,0.34,-12.44,0.75,1.07,0.0,0.0,0.0,-6.97,0.28,-6.88
1738247953.180835,67461,0,0,,0.0,-0.86,0.33,0.36,0.12,-0.4,1.78,0.38,-10.83,0.52,-0.79,0.0,0.0,0.0,-6.85,0.34,-7.0
1738247953.1974745,67462,0,0,,0.0,-0.87,0.33,0.35,0.11,-0.35,1.42,0.4,-8.69,0.65,-0.62,0.0,0.0,0.0,-6.68,0.43,-7.15
1738247953.215984,67463,0,0,,0.0,-0.87,0.34,0.35,0.11,-0.27,0.54,0.38,-7.9,-0.16,-0.63,0.0,0.0,0.0,-6.64,0.51,-7.19
1738247953.2306933,67464,0,0,,0.0,-0.87,0.34,0.35,0.11,0.11,-0.34,0.29,-6.58,-1.52,-0.73,0.0,0.0,0.0,-6.66,0.52,-7.17
1738247953.247308,67465,0,0,,0.0,-0.86,0.34,0.36,0.11,0.36,-0.78,0.19,-5.81,-1.35,-1.01,0.0,0.0,0.0,-6.8,0.47,-7.04
1738247953.2660968,67466,0,0,,0.0,-0.86,0.34,0.37,0.12,0.67,-1.62,-0.03,-5.07,0.1,-1.0,0.0,0.0,0.0,-7.04,0.38,-6.8
1738247953.2807486,67467,0,0,,0.0,-0.85,0.34,0.38,0.13,0.46,-2.45,-0.11,-5.37,0.71,-1.31,0.0,0.0,0.0,-7.2,0.34,-6.64
1738247953.297124,67468,0,0,,0.0,-0.84,0.33,0.4,0.14,0.29,-2.84,-0.13,-5.97,1.41,-1.93,0.0,0.0,0.0,-7.58,0.3,-6.21
1738247953.3165002,67469,0,0,,0.0,-0.83,0.33,0.43,0.15,-0.26,-3.53,-0.13,-6.16,1.26,-2.26,0.0,0.0,0.0,-8.0,0.33,-5.65
1738247953.3310227,67470,0,0,,0.0,-0.82,0.32,0.45,0.15,-0.81,-4.12,-0.16,-7.07,0.18,-2.98,0.0,0.0,0.0,-8.22,0.36,-5.32
1738247953.3470058,67471,0,0,,0.0,-0.8,0.31,0.49,0.16,-0.93,-4.38,-0.19,-7.66,-0.21,-3.67,0.0,0.0,0.0,-8.65,0.42,-4.58
1738247953.3665333,67472,0,0,,0.0,-0.78,0.29,0.53,0.17,-0.99,-4.79,-0.27,-8.13,-0.12,-3.96,0.0,0.0,0.0,-9.05,0.45,-3.74
1738247953.3807464,67473,0,0,,0.0,-0.77,0.28,0.55,0.17,-1.19,-5.09,-0.37,-9.95,0.68,-4.58,0.0,0.0,0.0,-9.22,0.46,-3.28
1738247953.397597,67474,0,0,,0.0,-0.74,0.26,0.59,0.18,-1.32,-5.22,-0.43,-11.67,1.58,-6.08,0.0,0.0,0.0,-9.51,0.45,-2.31
1738247953.4165041,67475,0,0,,0.0,-0.71,0.24,0.63,0.18,-1.51,-5.38,-0.5,-12.18,1.88,-6.32,0.0,0.0,0.0,-9.71,0.41,-1.29
1738247953.431135,67476,0,0,,0.0,-0.7,0.23,0.65,0.19,-1.64,-5.44,-0.56,-13.21,1.41,-6.48,0.0,0.0,0.0,-9.76,0.37,-0.77
1738247953.447357,67477,0,0,,0.0,-0.67,0.21,0.69,0.19,-1.57,-5.46,-0.59,-14.28,0.16,-5.97,0.0,0.0,0.0,-9.79,0.26,0.26
1738247953.4664934,67478,0,0,,0.0,-0.63,0.18,0.72,0.2,-1.13,-5.37,-0.66,-14.43,0.19,-6.45,0.0,0.0,0.0,-9.72,0.12,1.27
1738247953.48091,67479,0,0,,0.0,-0.62,0.18,0.74,0.21,-0.52,-5.12,-0.6,-14.45,0.45,-6.42,0.0,0.0,0.0,-9.64,0.06,1.75
1738247953.4976077,67480,0,0,,0.0,-0.58,0.16,0.77,0.22,-0.23,-4.93,-0.55,-14.69,0.97,-7.46,0.0,0.0,0.0,-9.44,-0.03,2.64
1738247953.5168447,67481,0,0,,0.0,-0.55,0.15,0.79,0.23,0.26,-4.4,-0.44,-14.02,0.71,-6.83,0.0,0.0,0.0,-9.19,-0.08,3.41
1738247953.5315776,67482,0,0,,0.0,-0.53,0.15,0.8,0.24,0.73,-3.73,-0.37,-11.87,0.58,-6.47,0.0,0.0,0.0,-9.06,-0.09,3.74
1738247953.5482383,67483,0,0,,0.0,-0.51,0.15,0.81,0.25,0.85,-3.35,-0.31,-9.43,0.95,-5.69,0.0,0.0,0.0,-8.81,-0.07,4.28
1738247953.5662692,67484,0,0,,0.0,-0.49,0.15,0.82,0.25,0.96,-2.53,-0.11,-9.12,0.91,-5.54,0.0,0.0,0.0,-8.61,0.0,4.67
1738247953.581392,67485,0,0,,0.0,-0.48,0.15,0.82,0.26,0.97,-1.57,0.05,-8.21,0.85,-5.49,0.0,0.0,0.0,-8.54,0.05,4.8
1738247953.5976167,67486,0,0,,0.0,-0.47,0.16,0.83,0.26,0.85,-1.06,0.06,-7.87,1.21,-5.83,0.0,0.0,0.0,-8.47,0.13,4.93
1738247953.6167934,67487,0,0,,0.0,-0.47,0.16,0.83,0.26,0.33,-0.01,0.03,-8.24,1.48,-5.45,0.0,0.0,0.0,-8.49,0.15,4.9
1738247953.6313155,67488,0,0,,0.0,-0.48,0.16,0.82,0.26,-0.18,0.82,0.05,-8.82,1.47,-4.77,0.0,0.0,0.0,-8.53,0.15,4.83
1738247953.647155,67489,0,0,,0.0,-0.49,0.16,0.82,0.26,-0.35,1.11,0.08,-9.95,1.43,-3.92,0.0,0.0,0.0,-8.64,0.12,4.63
1738247953.6672318,67490,0,0,,0.0,-0.5,0.16,0.81,0.25,-0.57,1.5,0.15,-10.04,1.28,-3.43,0.0,0.0,0.0,-8.77,0.1,4.37
1738247953.6809049,67491,0,0,,0.0,-0.51,0.16,0.81,0.25,-0.59,1.52,0.18,-13.9,0.59,13.9,0.0,0.0,0.0,-8.84,0.09,4.24
1738247953.697671,67492,0,0,,0.0,-0.51,0.16,0.81,0.24,-0.24,0.83,0.15,-18.84,-4.23,17.27,0.0,0.0,0.0,-8.87,0.1,4.17
1738247953.7165072,67493,0,0,,0.0,-0.51,0.16,0.81,0.24,-0.13,-0.09,0.31,-13.05,-2.12,4.51,0.0,0.0,0.0,-8.87,0.15,4.16
1738247953.7311885,67494,0,0,,0.0,-0.51,0.16,0.81,0.24,-0.21,0.75,0.3,-8.01,0.92,-2.88,0.0,0.0,0.0,-8.9,0.16,4.09
1738247953.7472916,67495,0,0,,0.0,-0.52,0.16,0.8,0.23,-0.23,0.99,0.32,-12.77,1.29,1.34,0.0,0.0,0.0,-8.98,0.19,3.91
1738247953.7671502,67496,0,0,,0.0,-0.53,0.16,0.8,0.22,-1.21,1.13,0.46,-11.7,1.41,1.01,0.0,0.0,0.0,-9.06,0.17,3.73
1738247953.7814355,67497,0,0,,0.0,-0.54,0.15,0.8,0.21,-1.62,0.93,0.44,-9.91,1.79,1.44,0.0,0.0,0.0,-9.09,0.15,3.65
1738247953.7976146,67498,0,0,,0.0,-0.55,0.15,0.8,0.2,-1.42,0.83,0.43,-8.75,-1.45,3.71,0.0,0.0,0.0,-9.15,0.15,3.51
1738247953.8168316,67499,0,0,,0.0,-0.55,0.15,0.8,0.2,-0.24,0.83,0.47,-8.76,-0.84,2.49,0.0,0.0,0.0,-9.2,0.23,3.37
1738247953.83149,67500,0,0,,0.0,-0.55,0.16,0.79,0.2,0.47,0.7,0.4,-8.76,0.77,2.91,0.0,0.0,0.0,-9.22,0.28,3.3
1738247953.8472803,67501,0,0,,0.0,-0.56,0.16,0.79,0.2,0.58,0.65,0.38,-9.56,0.9,1.71,0.0,0.0,0.0,-9.26,0.39,3.18
1738247953.8668325,67502,0,0,,0.0,-0.56,0.17,0.79,0.19,0.51,0.65,0.4,-10.51,0.21,1.49,0.0,0.0,0.0,-9.3,0.48,3.06
1738247953.8828554,67503,0,0,,0.0,-0.56,0.17,0.79,0.19,0.06,0.64,0.36,-10.25,0.67,2.01,0.0,0.0,0.0,-9.31,0.51,3.0
1738247953.8975432,67504,0,0,,0.0,-0.57,0.17,0.78,0.19,0.06,0.64,0.36,-10.05,1.15,1.67,0.0,0.0,0.0,-9.35,0.57,2.89
1738247953.9170861,67505,0,0,,0.0,-0.57,0.17,0.78,0.18,-0.27,0.63,0.36,-10.16,1.12,1.97,0.0,0.0,0.0,-9.38,0.62,2.78
1738247953.9313157,67506,0,0,,0.0,-0.57,0.17,0.78,0.18,-0.29,0.6,0.28,-9.68,1.0,1.9,0.0,0.0,0.0,-9.39,0.64,2.73
1738247953.9472399,67507,0,0,,0.0,-0.58,0.18,0.78,0.18,-0.29,0.6,0.28,-9.48,0.64,2.44,0.0,0.0,0.0,-9.42,0.67,2.62
1738247953.9666345,67508,0,0,,0.0,-0.58,0.18,0.77,0.17,0.0,0.59,0.21,-9.27,0.66,2.03,0.0,0.0,0.0,-9.45,0.71,2.51
1738247953.981327,67509,0,0,,0.0,-0.59,0.18,0.77,0.17,0.44,0.7,0.13,-9.56,0.89,2.81,0.0,0.0,0.0,-9.46,0.74,2.44
1738247953.9978685,67510,0,0,,0.0,-0.59,0.19,0.77,0.17,0.44,0.7,0.13,-9.14,1.18,1.68,0.0,0.0,0.0,-9.49,0.78,2.3
1738247954.016739,67511,0,0,,0.0,-0.59,0.19,0.76,0.18,0.56,0.74,0.09,-9.22,1.33,1.13,0.0,0.0,0.0,-9.53,0.82,2.15
1738247954.0312157,67512,0,0,,0.0,-0.6,0.2,0.76,0.18,0.61,0.81,0.05,-9.68,1.18,1.26,0.0,0.0,0.0,-9.54,0.84,2.07
1738247954.0473833,67513,0,0,,0.0,-0.6,0.2,0.75,0.18,0.63,0.79,0.04,-9.65,1.15,0.97,0.0,0.0,0.0,-9.57,0.87,1.92
1738247954.0669467,67514,0,0,,0.0,-0.61,0.21,0.75,0.18,0.65,0.77,0.02,-9.81,1.2,1.34,0.0,0.0,0.0,-9.6,0.89,1.77
1738247954.0813563,67515,0,0,,0.0,-0.61,0.21,0.74,0.18,0.55,0.71,0.01,-9.64,1.36,0.73,0.0,0.0,0.0,-9.61,0.9,1.7
1738247954.0974033,67516,0,0,,0.0,-0.61,0.21,0.74,0.18,0.45,0.72,0.02,-10.15,0.79,1.22,0.0,0.0,0.0,-9.63,0.92,1.55
1738247954.11711,67517,0,0,,0.0,-0.62,0.22,0.73,0.18,0.23,0.68,0.03,-9.84,0.83,0.54,0.0,0.0,0.0,-9.65,0.93,1.43
1738247954.1313183,67518,0,0,,0.0,-0.62,0.22,0.73,0.18,0.08,0.64,0.07,-9.77,0.91,0.22,0.0,0.0,0.0,-9.66,0.94,1.37
1738247954.1477833,67519,0,0,,0.0,-0.62,0.22,0.73,0.18,0.05,0.67,0.07,-9.9,0.99,1.0,0.0,0.0,0.0,-9.67,0.95,1.24
1738247954.166604,67520,0,0,,0.0,-0.63,0.22,0.73,0.18,0.08,0.62,0.05,-9.59,1.03,0.86,0.0,0.0,0.0,-9.69,0.96,1.13
1738247954.1808865,67521,0,0,,0.0,-0.63,0.22,0.72,0.18,0.17,0.66,0.04,-9.84,0.86,1.09,0.0,0.0,0.0,-9.69,0.97,1.06
1738247954.1971407,67522,0,0,,0.0,-0.63,0.23,0.72,0.18,0.24,0.68,0.03,-9.65,1.23,0.6,0.0,0.0,0.0,-9.71,0.98,0.93
1738247954.2168438,67523,0,0,,0.0,-0.64,0.23,0.71,0.18,0.29,0.7,0.03,-9.7,1.38,0.39,0.0,0.0,0.0,-9.72,0.99,0.79
1738247954.2315354,67524,0,0,,0.0,-0.64,0.23,0.71,0.18,0.26,0.75,0.03,-9.68,1.21,0.18,0.0,0.0,0.0,-9.72,1.0,0.72
1738247954.2473779,67525,0,0,,0.0,-0.64,0.24,0.71,0.18,0.25,0.74,0.02,-9.84,0.96,0.15,0.0,0.0,0.0,-9.73,1.0,0.57
1738247954.2672243,67526,0,0,,0.0,-0.65,0.24,0.7,0.18,0.25,0.79,0.02,-9.98,0.97,0.44,0.0,0.0,0.0,-9.74,1.01,0.42
1738247954.2812734,67527,0,0,,0.0,-0.65,0.24,0.7,0.18,0.27,0.8,0.02,-9.77,1.25,-0.17,0.0,0.0,0.0,-9.74,1.01,0.34
1738247954.2969344,67528,0,0,,0.0,-0.66,0.24,0.69,0.18,0.28,0.84,0.01,-9.88,1.2,-0.21,0.0,0.0,0.0,-9.75,1.02,0.17
1738247954.3170266,67529,0,0,,0.0,-0.66,0.25,0.68,0.18,0.33,0.88,-0.0,-9.89,1.2,-0.27,0.0,0.0,0.0,-9.75,1.02,0.0
1738247954.331311,67530,0,0,,0.0,-0.67,0.25,0.68,0.18,0.4,0.92,-0.0,-10.01,1.08,-0.15,0.0,0.0,0.0,-9.75,1.02,-0.09
1738247954.3472073,67531,0,0,,0.0,-0.67,0.25,0.67,0.18,0.44,0.95,-0.01,-10.28,0.95,0.31,0.0,0.0,0.0,-9.74,1.02,-0.28
1738247954.366964,67532,0,0,,0.0,-0.68,0.26,0.67,0.18,0.45,1.01,-0.0,-10.61,1.09,-0.46,0.0,0.0,0.0,-9.74,1.01,-0.49
1738247954.3812666,67533,0,0,,0.0,-0.68,0.26,0.66,0.18,0.42,1.11,-0.02,-10.56,0.97,-0.54,0.0,0.0,0.0,-9.73,1.01,-0.59
1738247954.3973358,67534,0,0,,0.0,-0.69,0.27,0.65,0.18,0.44,1.13,-0.04,-10.62,0.78,-0.79,0.0,0.0,0.0,-9.72,0.99,-0.82
1738247954.4173288,67535,0,0,,0.0,-0.69,0.27,0.64,0.18,0.39,1.25,-0.06,-10.52,0.76,-0.96,0.0,0.0,0.0,-9.69,0.97,-1.07
1738247954.4317222,67536,0,0,,0.0,-0.7,0.27,0.64,0.18,0.33,1.36,-0.11,-10.3,1.03,-0.78,0.0,0.0,0.0,-9.68,0.96,-1.2
1738247954.4476202,67537,0,0,,0.0,-0.71,0.27,0.63,0.18,0.25,1.4,-0.12,-10.37,0.97,-1.03,0.0,0.0,0.0,-9.64,0.93,-1.47
1738247954.4673283,67538,0,0,,0.0,-0.72,0.28,0.62,0.17,0.04,1.52,-0.17,-10.29,1.2,-1.49,0.0,0.0,0.0,-9.6,0.9,-1.76
1738247954.4816563,67539,0,0,,0.0,-0.72,0.28,0.61,0.17,-0.07,1.6,-0.23,-10.83,0.49,-0.32,0.0,0.0,0.0,-9.57,0.88,-1.91
1738247954.498061,67540,0,0,,0.0,-0.73,0.28,0.6,0.17,-0.06,1.6,-0.29,-11.95,1.52,-0.53,0.0,0.0,0.0,-9.51,0.82,-2.21
1738247954.517518,67541,0,0,,0.0,-0.74,0.28,0.59,0.17,-0.07,1.76,-0.4,-11.36,0.72,-0.11,0.0,0.0,0.0,-9.44,0.74,-2.53
1738247954.532047,67542,0,0,,0.0,-0.75,0.28,0.58,0.16,0.06,1.81,-0.44,-9.37,0.47,-1.37,0.0,0.0,0.0,-9.4,0.7,-2.69
1738247954.5482564,67543,0,0,,0.0,-0.76,0.28,0.56,0.16,0.1,2.01,-0.49,-10.17,0.15,-0.05,0.0,0.0,0.0,-9.29,0.6,-3.07
1738247954.5671859,67544,0,0,,0.0,-0.78,0.28,0.54,0.16,0.27,2.16,-0.57,-9.94,0.79,-0.53,0.0,0.0,0.0,-9.15,0.48,-3.47
1738247954.5819428,67545,0,0,,0.0,-0.78,0.28,0.53,0.16,0.44,2.5,-0.5,-11.02,-0.52,0.06,0.0,0.0,0.0,-9.07,0.42,-3.7
1738247954.5982509,67546,0,0,,0.0,-0.8,0.28,0.51,0.16,0.63,2.62,-0.43,-11.85,-0.51,0.57,0.0,0.0,0.0,-8.86,0.3,-4.17
1738247954.617891,67547,0,0,,0.0,-0.81,0.29,0.48,0.16,1.13,2.89,-0.15,-12.52,0.28,0.59,0.0,0.0,0.0,-8.61,0.19,-4.67
1738247954.6325293,67548,0,0,,0.0,-0.81,0.3,0.47,0.16,1.25,3.03,0.19,-14.79,2.41,-1.26,0.0,0.0,0.0,-8.47,0.14,-4.92
1738247954.648456,67549,0,0,,0.0,-0.82,0.31,0.44,0.16,1.12,3.12,0.26,-16.9,1.53,-0.59,0.0,0.0,0.0,-8.16,0.07,-5.43
1738247954.6677172,67550,0,0,,0.0,-0.83,0.32,0.42,0.16,1.23,3.04,0.21,-15.78,2.04,-2.78,0.0,0.0,0.0,-7.83,-0.02,-5.89
1738247954.6824415,67551,0,0,,0.0,-0.84,0.33,0.4,0.16,1.05,2.85,0.2,-13.19,2.98,-4.28,0.0,0.0,0.0,-7.66,-0.07,-6.11
1738247954.6984704,67552,0,0,,0.0,-0.85,0.34,0.38,0.16,0.69,2.71,0.21,-11.55,3.41,-2.61,0.0,0.0,0.0,-7.34,-0.09,-6.49
1738247954.7178266,67553,0,0,,0.0,-0.85,0.34,0.36,0.14,-0.22,2.27,0.29,-11.3,3.18,-1.88,0.0,0.0,0.0,-7.07,0.01,-6.78
1738247954.7327092,67554,0,0,,0.0,-0.86,0.34,0.36,0.14,-1.11,1.46,0.36,-9.65,-0.5,0.24,0.0,0.0,0.0,-6.98,0.1,-6.88
1738247954.7486,67555,0,0,,0.0,-0.86,0.34,0.36,0.12,-1.25,1.05,0.3,-7.9,-1.53,-1.35,0.0,0.0,0.0,-6.86,0.3,-6.99
1738247954.767818,67556,0,0,,0.0,-0.86,0.34,0.36,0.12,-0.71,0.27,0.22,-7.75,-1.41,-2.19,0.0,0.0,0.0,-6.85,0.39,-7.0
1738247954.782621,67557,0,0,,0.0,-0.86,0.34,0.36,0.12,0.11,-0.54,0.17,-6.42,-0.94,-1.46,0.0,0.0,0.0,-6.89,0.4,-6.96
1738247954.7980874,67558,0,0,,0.0,-0.86,0.34,0.37,0.13,0.32,-0.96,0.12,-5.12,0.02,-1.76,0.0,0.0,0.0,-7.04,0.35,-6.81
1738247954.8178153,67559,0,0,,0.0,-0.85,0.34,0.38,0.14,0.6,-1.78,-0.07,-5.05,0.5,-2.11,0.0,0.0,0.0,-7.3,0.26,-6.53
1738247954.8322337,67560,0,0,,0.0,-0.84,0.34,0.39,0.14,0.34,-2.56,-0.21,-5.47,0.65,-2.18,0.0,0.0,0.0,-7.46,0.23,-6.35
1738247954.8484154,67561,0,0,,0.0,-0.83,0.33,0.42,0.15,0.11,-2.88,-0.26,-6.12,0.65,-2.62,0.0,0.0,0.0,-7.82,0.19,-5.9
1738247954.8676937,67562,0,0,,0.0,-0.82,0.32,0.45,0.16,-0.45,-3.44,-0.29,-6.46,0.45,-2.64,0.0,0.0,0.0,-8.21,0.21,-5.35
1738247954.8822737,67563,0,0,,0.0,-0.81,0.31,0.47,0.17,-0.96,-3.98,-0.35,-6.97,0.13,-3.28,0.0,0.0,0.0,-8.41,0.23,-5.02
1738247954.8986297,67564,0,0,,0.0,-0.79,0.3,0.5,0.17,-1.11,-4.2,-0.39,-7.75,0.23,-3.84,0.0,0.0,0.0,-8.8,0.27,-4.3
1738247954.9178295,67565,0,0,,0.0,-0.77,0.28,0.54,0.18,-1.29,-4.55,-0.45,-8.74,0.7,-4.24,0.0,0.0,0.0,-9.15,0.29,-3.49
1738247954.932943,67566,0,0,,0.0,-0.76,0.27,0.56,0.18,-1.49,-4.81,-0.49,-9.88,1.18,-4.63,0.0,0.0,0.0,-9.31,0.29,-3.06
1738247954.9490256,67567,0,0,,0.0,-0.74,0.25,0.6,0.18,-1.61,-4.92,-0.51,-11.6,1.31,-4.99,0.0,0.0,0.0,-9.56,0.28,-2.14
1738247954.9682689,67568,0,0,,0.0,-0.71,0.23,0.64,0.18,-1.65,-5.11,-0.52,-12.04,1.19,-5.27,0.0,0.0,0.0,-9.73,0.23,-1.17
1738247954.982566,67569,0,0,,0.0,-0.7,0.21,0.66,0.19,-1.56,-5.19,-0.52,-13.1,0.68,-6.03,0.0,0.0,0.0,-9.78,0.2,-0.68
1738247954.9988275,67570,0,0,,0.0,-0.67,0.19,0.69,0.19,-1.43,-5.17,-0.53,-13.89,0.05,-6.11,0.0,0.0,0.0,-9.8,0.1,0.29
1738247955.017988,67571,0,0,,0.0,-0.64,0.18,0.72,0.2,-0.86,-5.02,-0.54,-14.44,0.31,-6.02,0.0,0.0,0.0,-9.72,0.0,1.23
1738247955.0328338,67572,0,0,,0.0,-0.62,0.17,0.74,0.2,-0.2,-4.8,-0.49,-14.18,0.04,-5.77,0.0,0.0,0.0,-9.66,-0.04,1.68
1738247955.0487983,67573,0,0,,0.0,-0.59,0.16,0.76,0.22,0.12,-4.64,-0.45,-13.39,-0.06,-5.68,0.0,0.0,0.0,-9.47,-0.11,2.52
1738247955.0680807,67574,0,0,,0.0,-0.56,0.15,0.78,0.23,0.72,-4.22,-0.36,-12.93,-0.27,-5.67,0.0,0.0,0.0,-9.24,-0.13,3.27
1738247955.0826085,67575,0,0,,0.0,-0.54,0.15,0.79,0.24,1.11,-3.67,-0.27,-10.55,0.19,-5.08,0.0,0.0,0.0,-9.12,-0.11,3.6
1738247955.098281,67576,0,0,,0.0,-0.51,0.16,0.81,0.25,1.17,-3.36,-0.19,-9.52,0.7,-5.16,0.0,0.0,0.0,-8.88,-0.05,4.15
1738247955.1182404,67577,0,0,,0.0,-0.49,0.16,0.82,0.26,1.11,-2.58,0.01,-9.11,0.92,-5.18,0.0,0.0,0.0,-8.68,0.04,4.55
1738247955.1326957,67578,0,0,,0.0,-0.49,0.16,0.82,0.26,0.75,-1.64,0.13,-8.19,0.92,-5.39,0.0,0.0,0.0,-8.6,0.08,4.69
1738247955.1490037,67579,0,0,,0.0,-0.48,0.16,0.82,0.26,0.45,-1.13,0.13,-8.24,0.4,-5.61,0.0,0.0,0.0,-8.52,0.13,4.83
1738247955.1678307,67580,0,0,,0.0,-0.48,0.16,0.82,0.26,-0.08,-0.12,0.09,-8.53,0.44,-5.41,0.0,0.0,0.0,-8.53,0.13,4.82
1738247955.1822798,67581,0,0,,0.0,-0.48,0.16,0.82,0.26,-0.34,0.71,0.07,-9.59,0.67,-4.46,0.0,0.0,0.0,-8.57,0.12,4.76
1738247955.1982028,67582,0,0,,0.0,-0.49,0.16,0.82,0.25,-0.42,1.01,0.08,-11.14,0.62,-1.79,0.0,0.0,0.0,-8.67,0.09,4.57
1738247955.2176557,67583,0,0,,0.0,-0.5,0.16,0.81,0.25,-0.53,1.4,0.15,-13.59,0.06,7.15,0.0,0.0,0.0,-8.78,0.08,4.35
1738247955.2324336,67584,0,0,,0.0,-0.5,0.16,0.81,0.25,0.06,0.42,0.04,-13.81,0.78,6.81,0.0,0.0,0.0,-8.8,0.08,4.32
1738247955.2491806,67585,0,0,,0.0,-0.5,0.16,0.81,0.24,-0.05,0.04,0.29,-5.27,-0.18,-5.23,0.0,0.0,0.0,-8.81,0.13,4.3
1738247955.2673838,67586,0,0,,0.0,-0.51,0.16,0.81,0.24,-0.49,0.65,0.38,-10.93,0.06,2.65,0.0,0.0,0.0,-8.87,0.15,4.16
1738247955.2822537,67587,0,0,,0.0,-0.52,0.16,0.81,0.23,-0.53,1.03,0.34,-12.6,-0.9,1.72,0.0,0.0,0.0,-8.91,0.16,4.07
1738247955.2984328,67588,0,0,,0.0,-0.53,0.16,0.8,0.22,-0.79,1.12,0.47,-9.24,1.51,1.86,0.0,0.0,0.0,-9.0,0.17,3.88
1738247955.3175943,67589,0,0,,0.0,-0.54,0.15,0.8,0.22,-0.98,1.0,0.37,-8.87,0.47,1.92,0.0,0.0,0.0,-9.07,0.17,3.72
1738247955.332375,67590,0,0,,0.0,-0.54,0.15,0.8,0.21,-0.75,0.95,0.44,-9.17,-0.71,2.6,0.0,0.0,0.0,-9.1,0.18,3.63
1738247955.3485448,67591,0,0,,0.0,-0.55,0.16,0.8,0.21,-0.37,0.96,0.46,-8.8,0.4,2.79,0.0,0.0,0.0,-9.16,0.24,3.47
1738247955.366776,67592,0,0,,0.0,-0.55,0.16,0.79,0.2,0.35,0.9,0.38,-9.02,1.12,3.39,0.0,0.0,0.0,-9.22,0.34,3.31
1738247955.3816116,67593,0,0,,0.0,-0.55,0.17,0.79,0.2,0.53,0.83,0.43,-8.92,0.92,1.6,0.0,0.0,0.0,-9.24,0.4,3.23
1738247955.3981845,67594,0,0,,0.0,-0.56,0.17,0.79,0.2,0.44,0.86,0.44,-9.22,0.94,1.8,0.0,0.0,0.0,-9.29,0.49,3.07
1738247955.4175866,67595,0,0,,0.0,-0.57,0.18,0.78,0.2,0.11,0.87,0.39,-10.09,1.0,1.44,0.0,0.0,0.0,-9.34,0.57,2.91
1738247955.4318717,67596,0,0,,0.0,-0.57,0.18,0.78,0.19,-0.26,0.85,0.42,-10.15,0.8,0.93,0.0,0.0,0.0,-9.36,0.6,2.84
1738247955.4479017,67597,0,0,,0.0,-0.57,0.18,0.78,0.19,-0.34,0.83,0.4,-10.43,0.64,1.47,0.0,0.0,0.0,-9.4,0.65,2.69
1738247955.4674933,67598,0,0,,0.0,-0.58,0.18,0.77,0.18,-0.29,0.73,0.36,-10.08,0.68,0.98,0.0,0.0,0.0,-9.42,0.68,2.63
1738247955.481816,67599,0,0,,0.0,-0.58,0.18,0.77,0.18,-0.08,0.65,0.31,-10.13,0.85,1.71,0.0,0.0,0.0,-9.45,0.73,2.51
1738247955.49751,67600,0,0,,0.0,-0.59,0.19,0.77,0.18,0.05,0.63,0.27,-9.76,0.97,1.42,0.0,0.0,0.0,-9.47,0.78,2.39
1738247955.5168295,67601,0,0,,0.0,-0.59,0.19,0.77,0.17,0.21,0.64,0.22,-9.68,1.05,2.19,0.0,0.0,0.0,-9.48,0.81,2.33
1738247955.5315523,67602,0,0,,0.0,-0.59,0.19,0.76,0.17,0.33,0.67,0.16,-9.31,1.08,2.18,0.0,0.0,0.0,-9.51,0.85,2.2
1738247955.5477262,67603,0,0,,0.0,-0.6,0.2,0.76,0.17,0.36,0.71,0.15,-9.03,1.35,2.0,0.0,0.0,0.0,-9.54,0.89,2.06
1738247955.566808,67604,0,0,,0.0,-0.6,0.2,0.75,0.17,0.38,0.81,0.11,-9.53,1.59,2.84,0.0,0.0,0.0,-9.55,0.91,1.98
1738247955.5813806,67605,0,0,,0.0,-0.6,0.2,0.75,0.17,0.27,0.8,0.09,-9.65,1.39,0.97,0.0,0.0,0.0,-9.58,0.94,1.83
1738247955.5977674,67606,0,0,,0.0,-0.61,0.21,0.75,0.17,0.28,0.81,0.08,-10.01,0.86,0.84,0.0,0.0,0.0,-9.61,0.96,1.67
1738247955.61607,67607,0,0,,0.0,-0.61,0.21,0.74,0.17,0.38,0.75,0.06,-10.01,0.78,0.12,0.0,0.0,0.0,-9.62,0.98,1.6
1738247955.631245,67608,0,0,,0.0,-0.62,0.21,0.74,0.17,0.34,0.71,0.07,-10.04,0.91,0.71,0.0,0.0,0.0,-9.64,1.0,1.46
1738247955.6474135,67609,0,0,,0.0,-0.62,0.22,0.73,0.17,0.29,0.69,0.07,-10.04,0.76,0.99,0.0,0.0,0.0,-9.66,1.02,1.33
1738247955.6650825,67610,0,0,,0.0,-0.62,0.22,0.73,0.17,0.19,0.67,0.08,-9.54,1.22,0.26,0.0,0.0,0.0,-9.66,1.03,1.26
1738247955.6808965,67611,0,0,,0.0,-0.63,0.22,0.73,0.17,0.16,0.73,0.07,-9.55,1.34,0.94,0.0,0.0,0.0,-9.68,1.05,1.13
1738247955.6973448,67612,0,0,,0.0,-0.63,0.23,0.72,0.17,0.17,0.73,0.07,-9.44,1.21,0.83,0.0,0.0,0.0,-9.69,1.07,0.98
1738247955.716095,67613,0,0,,0.0,-0.63,0.23,0.72,0.17,0.26,0.8,0.07,-9.62,1.17,0.86,0.0,0.0,0.0,-9.7,1.07,0.9
1738247955.7314901,67614,0,0,,0.0,-0.64,0.23,0.71,0.17,0.33,0.85,0.07,-9.91,1.43,0.34,0.0,0.0,0.0,-9.71,1.09,0.74
1738247955.7476954,67615,0,0,,0.0,-0.64,0.23,0.71,0.17,0.31,0.87,0.08,-9.95,1.43,-0.05,0.0,0.0,0.0,-9.72,1.11,0.57
1738247955.7653124,67616,0,0,,0.0,-0.65,0.24,0.7,0.17,0.28,0.86,0.07,-9.9,1.25,-0.06,0.0,0.0,0.0,-9.72,1.12,0.49
1738247955.7815368,67617,0,0,,0.0,-0.65,0.24,0.7,0.17,0.22,0.88,0.08,-9.8,1.4,-0.51,0.0,0.0,0.0,-9.73,1.14,0.32
1738247955.7975285,67618,0,0,,0.0,-0.66,0.24,0.69,0.17,0.17,0.91,0.08,-10.17,1.24,-0.03,0.0,0.0,0.0,-9.73,1.15,0.14
1738247955.8147223,67619,0,0,,0.0,-0.66,0.24,0.69,0.17,0.08,0.91,0.08,-10.07,1.39,-0.36,0.0,0.0,0.0,-9.73,1.16,0.05
1738247955.8306022,67620,0,0,,0.0,-0.67,0.25,0.68,0.16,0.09,0.95,0.07,-10.5,0.95,-0.14,0.0,0.0,0.0,-9.73,1.17,-0.11
1738247955.8472369,67621,0,0,,0.0,-0.67,0.25,0.68,0.16,0.16,0.95,0.06,-10.13,1.13,-0.54,0.0,0.0,0.0,-9.72,1.18,-0.3
1738247955.8650265,67622,0,0,,0.0,-0.68,0.25,0.67,0.16,0.31,1.0,0.04,-10.15,1.2,-0.55,0.0,0.0,0.0,-9.72,1.19,-0.4
1738247955.8810444,67623,0,0,,0.0,-0.68,0.26,0.67,0.16,0.42,1.06,0.01,-10.31,1.3,-0.46,0.0,0.0,0.0,-9.71,1.19,-0.6
1738247955.8977334,67624,0,0,,0.0,-0.69,0.26,0.66,0.16,0.43,1.08,0.0,-10.1,1.4,-1.13,0.0,0.0,0.0,-9.69,1.18,-0.82
1738247955.9148412,67625,0,0,,0.0,-0.69,0.26,0.65,0.16,0.44,1.18,-0.03,-10.59,0.97,-0.54,0.0,0.0,0.0,-9.68,1.17,-0.94
1738247955.9309947,67626,0,0,,0.0,-0.7,0.27,0.64,0.16,0.45,1.23,-0.06,-10.28,1.07,-1.26,0.0,0.0,0.0,-9.66,1.15,-1.17
1738247955.947526,67627,0,0,,0.0,-0.71,0.27,0.63,0.16,0.44,1.28,-0.08,-10.33,1.01,-1.06,0.0,0.0,0.0,-9.63,1.13,-1.43
1738247955.9657745,67628,0,0,,0.0,-0.71,0.27,0.63,0.16,0.42,1.39,-0.12,-10.12,1.36,-1.01,0.0,0.0,0.0,-9.61,1.11,-1.56
1738247955.9811327,67629,0,0,,0.0,-0.72,0.28,0.62,0.16,0.36,1.48,-0.15,-9.88,1.5,-1.19,0.0,0.0,0.0,-9.57,1.07,-1.84
1738247955.9981978,67630,0,0,,0.0,-0.73,0.28,0.6,0.16,0.32,1.52,-0.18,-10.0,1.36,-1.15,0.0,0.0,0.0,-9.51,1.02,-2.13
1738247956.0157871,67631,0,0,,0.0,-0.73,0.28,0.6,0.16,0.26,1.58,-0.23,-10.3,0.77,-1.04,0.0,0.0,0.0,-9.48,1.0,-2.28
1738247956.0316586,67632,0,0,,0.0,-0.74,0.28,0.59,0.16,0.32,1.6,-0.37,-11.5,2.66,-2.47,0.0,0.0,0.0,-9.41,0.92,-2.58
1738247956.0481377,67633,0,0,,0.0,-0.75,0.28,0.57,0.16,0.21,1.73,-0.43,-12.52,1.65,-0.32,0.0,0.0,0.0,-9.33,0.83,-2.9
1738247956.065982,67634,0,0,,0.0,-0.76,0.28,0.57,0.16,0.13,1.71,-0.49,-9.83,0.27,-1.96,0.0,0.0,0.0,-9.28,0.78,-3.05
1738247956.0820336,67635,0,0,,0.0,-0.77,0.28,0.55,0.16,0.27,2.03,-0.58,-10.79,-0.94,0.94,0.0,0.0,0.0,-9.17,0.67,-3.4
1738247956.0980966,67636,0,0,,0.0,-0.78,0.28,0.53,0.16,0.31,2.06,-0.64,-10.24,0.05,0.17,0.0,0.0,0.0,-9.03,0.54,-3.78
1738247956.116301,67637,0,0,,0.0,-0.79,0.28,0.52,0.16,0.46,2.33,-0.56,-11.59,-0.97,2.39,0.0,0.0,0.0,-8.94,0.47,-3.99
1738247956.1321058,67638,0,0,,0.0,-0.8,0.29,0.5,0.16,0.77,2.68,-0.43,-11.0,-0.36,1.05,0.0,0.0,0.0,-8.73,0.34,-4.43
1738247956.14827,67639,0,0,,0.0,-0.82,0.3,0.47,0.16,0.94,2.97,-0.3,-12.02,1.55,-2.11,0.0,0.0,0.0,-8.45,0.22,-4.95
1738247956.1661477,67640,0,0,,0.0,-0.82,0.3,0.46,0.16,0.79,3.51,-0.01,-16.23,2.94,-2.13,0.0,0.0,0.0,-8.28,0.18,-5.24
1738247956.18202,67641,0,0,,0.0,-0.84,0.31,0.43,0.15,0.45,3.59,0.03,-16.86,3.69,-4.25,0.0,0.0,0.0,-7.89,0.12,-5.81
1738247956.1983867,67642,0,0,,0.0,-0.85,0.31,0.4,0.14,0.12,3.53,0.08,-15.21,4.46,-4.42,0.0,0.0,0.0,-7.48,0.15,-6.33
1738247956.2166133,67643,0,0,,0.0,-0.86,0.32,0.39,0.13,-0.81,3.33,0.28,-11.75,1.97,-3.46,0.0,0.0,0.0,-7.27,0.22,-6.56
1738247956.2321076,67644,0,0,,0.0,-0.87,0.32,0.36,0.11,-1.17,2.86,0.45,-14.46,0.83,-0.01,0.0,0.0,0.0,-6.87,0.43,-6.97
1738247956.2486947,67645,0,0,,0.0,-0.88,0.32,0.35,0.09,-0.98,2.45,0.45,-13.52,-1.63,-1.18,0.0,0.0,0.0,-6.56,0.6,-7.26
1738247956.2666183,67646,0,0,,0.0,-0.88,0.32,0.34,0.09,-0.06,1.72,0.34,-11.04,-0.79,-2.21,0.0,0.0,0.0,-6.43,0.63,-7.36
1738247956.282271,67647,0,0,,0.0,-0.88,0.33,0.33,0.09,0.46,1.02,0.21,-8.03,1.07,-2.38,0.0,0.0,0.0,-6.26,0.6,-7.52
1738247956.298734,67648,0,0,,0.0,-0.88,0.33,0.33,0.09,0.35,0.6,0.2,-7.03,1.08,-2.46,0.0,0.0,0.0,-6.2,0.57,-7.57
1738247956.3166332,67649,0,0,,0.0,-0.88,0.33,0.33,0.09,0.14,-0.27,0.12,-4.82,1.37,-2.36,0.0,0.0,0.0,-6.22,0.57,-7.55
1738247956.3323374,67650,0,0,,0.0,-0.88,0.33,0.34,0.09,-0.19,-1.2,0.03,-4.18,0.72,-1.78,0.0,0.0,0.0,-6.36,0.59,-7.43
1738247956.348834,67651,0,0,,0.0,-0.87,0.33,0.35,0.1,-0.29,-1.65,-0.03,-3.93,0.44,-1.73,0.0,0.0,0.0,-6.62,0.63,-7.19
1738247956.3664389,67652,0,0,,0.0,-0.87,0.33,0.36,0.1,-0.28,-2.51,-0.14,-3.94,0.01,-1.99,0.0,0.0,0.0,-6.8,0.64,-7.03
1738247956.3816764,67653,0,0,,0.0,-0.86,0.32,0.39,0.11,-0.17,-3.32,-0.25,-4.28,-0.18,-2.56,0.0,0.0,0.0,-7.21,0.64,-6.6
1738247956.3989947,67654,0,0,,0.0,-0.84,0.31,0.42,0.12,-0.1,-3.67,-0.29,-4.58,-0.04,-2.64,0.0,0.0,0.0,-7.69,0.61,-6.05
1738247956.416995,67655,0,0,,0.0,-0.83,0.31,0.44,0.13,-0.14,-4.28,-0.34,-5.41,0.14,-3.27,0.0,0.0,0.0,-7.93,0.59,-5.73
1738247956.4322505,67656,0,0,,0.0,-0.82,0.3,0.48,0.14,-0.15,-4.81,-0.39,-6.44,-0.02,-4.34,0.0,0.0,0.0,-8.42,0.54,-4.98
1738247956.4489944,67657,0,0,,0.0,-0.79,0.29,0.51,0.16,-0.08,-5.03,-0.41,-6.82,-0.15,-4.92,0.0,0.0,0.0,-8.88,0.48,-4.12
1738247956.466456,67658,0,0,,0.0,-0.78,0.28,0.53,0.16,0.03,-5.3,-0.41,-8.47,0.45,-6.02,0.0,0.0,0.0,-9.08,0.44,-3.66
1738247956.4826903,67659,0,0,,0.0,-0.75,0.27,0.57,0.18,-0.26,-5.48,-0.33,-9.87,0.88,-6.53,0.0,0.0,0.0,-9.42,0.39,-2.69
1738247956.4986587,67660,0,0,,0.0,-0.72,0.25,0.62,0.19,-0.45,-5.54,-0.3,-10.9,1.23,-7.78,0.0,0.0,0.0,-9.65,0.36,-1.66
1738247956.5170546,67661,0,0,,0.0,-0.71,0.25,0.64,0.2,-0.8,-5.53,-0.24,-11.59,1.54,-9.18,0.0,0.0,0.0,-9.73,0.35,-1.14
1738247956.5328286,67662,0,0,,0.0,-0.67,0.23,0.67,0.2,-1.0,-5.33,-0.19,-13.27,0.58,-9.1,0.0,0.0,0.0,-9.8,0.32,-0.11
1738247956.548785,67663,0,0,,0.0,-0.64,0.21,0.71,0.21,-0.95,-5.21,-0.18,-13.61,0.51,-8.99,0.0,0.0,0.0,-9.76,0.28,0.86
1738247956.5666878,67664,0,0,,0.0,-0.61,0.2,0.74,0.22,-0.73,-4.88,-0.16,-13.69,0.57,-7.33,0.0,0.0,0.0,-9.71,0.26,1.32
1738247956.5829241,67665,0,0,,0.0,-0.59,0.19,0.75,0.22,-0.55,-4.49,-0.12,-13.11,0.09,-6.34,0.0,0.0,0.0,-9.55,0.21,2.18
1738247956.5989153,67666,0,0,,0.0,-0.56,0.18,0.77,0.23,-0.39,-4.24,-0.12,-13.57,0.33,-5.99,0.0,0.0,0.0,-9.35,0.17,2.94
1738247956.6168022,67667,0,0,,0.0,-0.54,0.17,0.79,0.23,-0.23,-3.73,-0.08,-13.53,0.06,-5.78,0.0,0.0,0.0,-9.24,0.16,3.27
1738247956.6328397,67668,0,0,,0.0,-0.53,0.16,0.8,0.23,-0.11,-3.12,-0.04,-12.1,-0.36,-5.8,0.0,0.0,0.0,-9.01,0.14,3.85
1738247956.6486907,67669,0,0,,0.0,-0.51,0.16,0.81,0.24,0.03,-2.76,-0.03,-9.79,0.18,-6.56,0.0,0.0,0.0,-8.81,0.15,4.29
1738247956.6667523,67670,0,0,,0.0,-0.49,0.16,0.82,0.24,0.22,-1.84,0.05,-7.63,1.3,-9.09,0.0,0.0,0.0,-8.73,0.16,4.45
1738247956.682695,67671,0,0,,0.0,-0.49,0.16,0.82,0.24,0.16,-0.57,0.11,-8.02,1.3,-7.51,0.0,0.0,0.0,-8.65,0.19,4.6
1738247956.6990976,67672,0,0,,0.0,-0.49,0.16,0.82,0.24,0.07,0.03,0.09,-8.23,1.21,-7.4,0.0,0.0,0.0,-8.68,0.21,4.55
1738247956.7167232,67673,0,0,,0.0,-0.5,0.16,0.82,0.24,-0.2,1.12,0.09,-9.1,0.83,-5.37,0.0,0.0,0.0,-8.73,0.21,4.45
1738247956.7329092,67674,0,0,,0.0,-0.51,0.16,0.81,0.23,-0.07,1.42,0.07,-20.04,-1.37,27.15,0.0,0.0,0.0,-8.85,0.21,4.2
1738247956.7485712,67675,0,0,,0.0,-0.51,0.16,0.81,0.24,0.38,0.56,0.02,-12.43,-1.7,7.72,0.0,0.0,0.0,-8.87,0.24,4.17
1738247956.7672906,67676,0,0,,0.0,-0.51,0.17,0.81,0.23,0.33,-0.11,0.34,-6.49,-0.54,-2.17,0.0,0.0,0.0,-8.86,0.29,4.18
1738247956.782817,67677,0,0,,0.0,-0.51,0.17,0.81,0.23,0.2,0.95,0.21,-10.73,2.08,4.38,0.0,0.0,0.0,-8.91,0.36,4.06
1738247956.7988908,67678,0,0,,0.0,-0.52,0.17,0.8,0.23,-0.11,1.07,0.2,-10.15,0.85,1.72,0.0,0.0,0.0,-8.99,0.37,3.88
1738247956.8165457,67679,0,0,,0.0,-0.53,0.17,0.8,0.22,-1.24,0.99,0.35,-9.36,-0.21,2.21,0.0,0.0,0.0,-9.03,0.36,3.8
1738247956.833158,67680,0,0,,0.0,-0.54,0.16,0.8,0.21,-1.0,0.83,0.26,-8.78,0.62,1.99,0.0,0.0,0.0,-9.09,0.32,3.66
1738247956.849312,67681,0,0,,0.0,-0.54,0.16,0.8,0.21,-0.59,0.85,0.32,-9.73,1.08,1.67,0.0,0.0,0.0,-9.15,0.35,3.5
1738247956.8673053,67682,0,0,,0.0,-0.55,0.17,0.79,0.2,0.12,0.89,0.37,-9.43,1.38,2.35,0.0,0.0,0.0,-9.17,0.39,3.43
1738247956.8837469,67683,0,0,,0.0,-0.55,0.17,0.79,0.2,0.55,0.69,0.31,-9.1,1.41,1.86,0.0,0.0,0.0,-9.22,0.48,3.29
1738247956.8989477,67684,0,0,,0.0,-0.55,0.18,0.79,0.2,0.57,0.68,0.35,-9.38,0.42,2.43,0.0,0.0,0.0,-9.26,0.58,3.16
1738247956.9169579,67685,0,0,,0.0,-0.56,0.19,0.78,0.2,0.5,0.7,0.38,-9.76,1.28,1.5,0.0,0.0,0.0,-9.28,0.63,3.1
1738247956.9330938,67686,0,0,,0.0,-0.56,0.19,0.78,0.2,-0.12,0.73,0.36,-10.34,1.1,1.97,0.0,0.0,0.0,-9.31,0.69,2.97
1738247956.9494216,67687,0,0,,0.0,-0.57,0.19,0.78,0.19,-0.38,0.71,0.37,-9.85,1.14,1.02,0.0,0.0,0.0,-9.35,0.74,2.85
1738247956.967168,67688,0,0,,0.0,-0.57,0.19,0.78,0.18,-0.62,0.69,0.37,-9.96,0.86,0.76,0.0,0.0,0.0,-9.36,0.75,2.79
1738247956.9833105,67689,0,0,,0.0,-0.57,0.19,0.78,0.18,-0.46,0.61,0.32,-9.99,0.28,1.43,0.0,0.0,0.0,-9.39,0.79,2.68
1738247956.9993277,67690,0,0,,0.0,-0.58,0.19,0.77,0.18,-0.27,0.57,0.3,-9.59,0.72,1.46,0.0,0.0,0.0,-9.42,0.83,2.58
1738247957.0173328,67691,0,0,,0.0,-0.58,0.19,0.77,0.17,0.09,0.63,0.23,-9.66,0.98,2.44,0.0,0.0,0.0,-9.43,0.85,2.52
1738247957.0332425,67692,0,0,,0.0,-0.58,0.19,0.77,0.17,0.22,0.67,0.18,-9.28,1.08,2.01,0.0,0.0,0.0,-9.46,0.9,2.39
1738247957.0493262,67693,0,0,,0.0,-0.59,0.2,0.76,0.17,0.25,0.72,0.16,-9.43,1.11,2.44,0.0,0.0,0.0,-9.49,0.93,2.25
1738247957.0674076,67694,0,0,,0.0,-0.59,0.2,0.76,0.17,0.32,0.78,0.11,-9.27,1.3,1.96,0.0,0.0,0.0,-9.51,0.95,2.18
1738247957.0838132,67695,0,0,,0.0,-0.6,0.2,0.76,0.17,0.38,0.81,0.08,-9.43,1.52,1.34,0.0,0.0,0.0,-9.54,0.98,2.02
1738247957.099109,67696,0,0,,0.0,-0.6,0.21,0.75,0.17,0.41,0.81,0.07,-9.65,1.37,1.25,0.0,0.0,0.0,-9.57,1.01,1.87
1738247957.1173687,67697,0,0,,0.0,-0.61,0.21,0.75,0.17,0.4,0.76,0.06,-9.6,1.45,0.79,0.0,0.0,0.0,-9.58,1.02,1.79
1738247957.1337514,67698,0,0,,0.0,-0.61,0.21,0.74,0.17,0.35,0.74,0.04,-10.1,0.95,1.19,0.0,0.0,0.0,-9.6,1.04,1.65
1738247957.1490364,67699,0,0,,0.0,-0.61,0.22,0.74,0.17,0.32,0.69,0.04,-9.74,1.15,0.15,0.0,0.0,0.0,-9.62,1.06,1.52
1738247957.1678283,67700,0,0,,0.0,-0.62,0.22,0.74,0.17,0.21,0.66,0.06,-10.04,1.09,0.78,0.0,0.0,0.0,-9.63,1.07,1.45
1738247957.1840472,67701,0,0,,0.0,-0.62,0.22,0.73,0.17,0.13,0.61,0.05,-10.03,1.23,1.05,0.0,0.0,0.0,-9.65,1.08,1.33
1738247957.1995668,67702,0,0,,0.0,-0.62,0.22,0.73,0.17,0.1,0.62,0.05,-9.68,1.28,0.67,0.0,0.0,0.0,-9.66,1.1,1.2
1738247957.2172687,67703,0,0,,0.0,-0.63,0.23,0.72,0.17,0.13,0.68,0.04,-9.79,1.0,1.18,0.0,0.0,0.0,-9.67,1.1,1.13
1738247957.2340407,67704,0,0,,0.0,-0.63,0.23,0.72,0.17,0.22,0.69,0.03,-9.47,1.12,0.33,0.0,0.0,0.0,-9.69,1.11,1.0
1738247957.249253,67705,0,0,,0.0,-0.63,0.23,0.72,0.17,0.27,0.75,0.02,-9.88,1.07,1.24,0.0,0.0,0.0,-9.7,1.12,0.85
1738247957.2678266,67706,0,0,,0.0,-0.64,0.23,0.71,0.17,0.27,0.75,0.02,-9.4,1.44,0.18,0.0,0.0,0.0,-9.7,1.13,0.78
1738247957.2837312,67707,0,0,,0.0,-0.64,0.24,0.71,0.17,0.26,0.83,0.02,-9.94,1.37,0.14,0.0,0.0,0.0,-9.72,1.14,0.62
1738247957.2996063,67708,0,0,,0.0,-0.65,0.24,0.7,0.17,0.27,0.84,0.01,-9.83,1.33,-0.26,0.0,0.0,0.0,-9.72,1.14,0.45
1738247957.3180823,67709,0,0,,0.0,-0.65,0.24,0.7,0.17,0.28,0.85,0.01,-9.9,1.27,-0.4,0.0,0.0,0.0,-9.73,1.14,0.37
1738247957.3340378,67710,0,0,,0.0,-0.66,0.24,0.69,0.17,0.31,0.91,-0.0,-10.18,1.33,0.17,0.0,0.0,0.0,-9.73,1.14,0.19
1738247957.3495708,67711,0,0,,0.0,-0.66,0.25,0.69,0.17,0.33,0.92,0.0,-10.28,1.19,-0.03,0.0,0.0,0.0,-9.73,1.14,0.01
1738247957.3679128,67712,0,0,,0.0,-0.67,0.25,0.68,0.17,0.41,1.0,0.0,-10.5,1.21,0.22,0.0,0.0,0.0,-9.73,1.14,-0.08
1738247957.3844922,67713,0,0,,0.0,-0.67,0.26,0.68,0.17,0.48,1.04,-0.0,-10.33,1.44,-0.33,0.0,0.0,0.0,-9.73,1.14,-0.29
1738247957.4000247,67714,0,0,,0.0,-0.68,0.26,0.67,0.17,0.49,1.08,0.0,-10.61,0.86,-0.18,0.0,0.0,0.0,-9.72,1.14,-0.51
1738247957.41786,67715,0,0,,0.0,-0.68,0.26,0.66,0.17,0.49,1.18,-0.04,-10.51,0.99,-0.27,0.0,0.0,0.0,-9.72,1.13,-0.62
1738247957.4341083,67716,0,0,,0.0,-0.69,0.27,0.65,0.17,0.39,1.28,-0.06,-10.37,1.15,-0.88,0.0,0.0,0.0,-9.7,1.11,-0.87
1738247957.4496765,67717,0,0,,0.0,-0.7,0.27,0.64,0.17,0.33,1.34,-0.07,-10.56,1.1,-0.44,0.0,0.0,0.0,-9.67,1.09,-1.13
1738247957.4682593,67718,0,0,,0.0,-0.7,0.27,0.63,0.17,0.26,1.39,-0.1,-10.21,1.37,-0.91,0.0,0.0,0.0,-9.66,1.08,-1.26
1738247957.4845483,67719,0,0,,0.0,-0.71,0.27,0.63,0.17,0.18,1.48,-0.14,-10.39,0.96,-0.99,0.0,0.0,0.0,-9.62,1.05,-1.54
1738247957.5001636,67720,0,0,,0.0,-0.72,0.28,0.62,0.17,0.17,1.51,-0.16,-9.89,1.0,-1.38,0.0,0.0,0.0,-9.58,1.01,-1.82
1738247957.5183125,67721,0,0,,0.0,-0.73,0.28,0.6,0.16,0.11,1.59,-0.2,-9.7,1.11,-1.58,0.0,0.0,0.0,-9.55,0.99,-1.97
1738247957.5351498,67722,0,0,,0.0,-0.73,0.28,0.6,0.16,0.07,1.64,-0.26,-9.78,1.0,-1.3,0.0,0.0,0.0,-9.49,0.94,-2.27
1738247957.5499485,67723,0,0,,0.0,-0.74,0.28,0.59,0.16,0.07,1.64,-0.28,-9.8,1.19,-2.82,0.0,0.0,0.0,-9.41,0.88,-2.58
1738247957.5682561,67724,0,0,,0.0,-0.75,0.28,0.57,0.16,0.1,1.75,-0.44,-10.73,2.16,-2.77,0.0,0.0,0.0,-9.37,0.84,-2.74
1738247957.584874,67725,0,0,,0.0,-0.76,0.28,0.57,0.16,0.07,1.73,-0.48,-10.25,0.53,-1.25,0.0,0.0,0.0,-9.28,0.75,-3.06
1738247957.6000514,67726,0,0,,0.0,-0.77,0.28,0.55,0.16,0.2,1.79,-0.47,-9.48,0.19,-1.38,0.0,0.0,0.0,-9.17,0.65,-3.39
1738247957.6190856,67727,0,0,,0.0,-0.78,0.28,0.53,0.16,0.44,2.02,-0.55,-10.71,-0.46,0.56,0.0,0.0,0.0,-9.11,0.58,-3.58
1738247957.6349013,67728,0,0,,0.0,-0.79,0.28,0.52,0.16,0.8,2.19,-0.46,-10.69,-0.61,0.0,0.0,0.0,0.0,-8.96,0.45,-3.95
1738247957.6505396,67729,0,0,,0.0,-0.8,0.29,0.5,0.16,1.0,2.34,-0.41,-11.27,-0.39,-0.04,0.0,0.0,0.0,-8.76,0.29,-4.38
1738247957.668238,67730,0,0,,0.0,-0.81,0.3,0.47,0.17,1.61,2.68,-0.16,-11.7,1.15,-0.56,0.0,0.0,0.0,-8.65,0.21,-4.61
1738247957.6852312,67731,0,0,,0.0,-0.82,0.31,0.46,0.17,1.42,3.07,0.15,-14.94,3.65,-1.4,0.0,0.0,0.0,-8.37,0.07,-5.1
1738247957.700135,67732,0,0,,0.0,-0.83,0.32,0.43,0.17,1.06,3.16,0.21,-15.02,3.19,-1.85,0.0,0.0,0.0,-8.04,0.02,-5.61
1738247957.719207,67733,0,0,,0.0,-0.84,0.33,0.41,0.16,0.31,3.14,0.2,-13.75,2.57,-3.54,0.0,0.0,0.0,-7.69,0.03,-6.08
1738247957.7348154,67734,0,0,,0.0,-0.84,0.33,0.4,0.15,-0.17,2.97,0.22,-12.35,2.32,-3.25,0.0,0.0,0.0,-7.51,0.06,-6.3
1738247957.7505078,67735,0,0,,0.0,-0.85,0.33,0.38,0.14,-0.46,2.79,0.24,-12.19,1.24,-2.16,0.0,0.0,0.0,-7.17,0.16,-6.68
1738247957.7682812,67736,0,0,,0.0,-0.86,0.34,0.36,0.12,-0.53,2.24,0.32,-12.39,1.41,-1.32,0.0,0.0,0.0,-6.9,0.27,-6.96
1738247957.7848792,67737,0,0,,0.0,-0.86,0.34,0.35,0.12,-0.28,1.47,0.25,-10.16,-0.71,-1.12,0.0,0.0,0.0,-6.8,0.3,-7.05
1738247957.8004408,67738,0,0,,0.0,-0.87,0.34,0.35,0.12,0.04,1.1,0.2,-8.29,0.1,-1.53,0.0,0.0,0.0,-6.67,0.29,-7.17
1738247957.8182504,67739,0,0,,0.0,-0.87,0.34,0.34,0.12,0.57,0.38,0.06,-7.74,0.7,-1.66,0.0,0.0,0.0,-6.64,0.22,-7.2
1738247957.8357136,67740,0,0,,0.0,-0.86,0.34,0.34,0.13,0.46,-0.44,0.05,-6.15,1.2,-1.64,0.0,0.0,0.0,-6.67,0.19,-7.17
1738247957.8502324,67741,0,0,,0.0,-0.86,0.34,0.35,0.13,0.32,-0.86,0.03,-5.21,1.06,-1.81,0.0,0.0,0.0,-6.82,0.16,-7.03
1738247957.8692741,67742,0,0,,0.0,-0.85,0.34,0.37,0.14,0.06,-1.65,-0.06,-5.22,1.21,-1.95,0.0,0.0,0.0,-7.07,0.15,-6.79
1738247957.885456,67743,0,0,,0.0,-0.85,0.34,0.38,0.14,-0.39,-2.39,-0.14,-5.3,0.97,-1.73,0.0,0.0,0.0,-7.22,0.17,-6.62
1738247957.9007359,67744,0,0,,0.0,-0.84,0.33,0.4,0.14,-0.59,-2.73,-0.17,-5.67,0.57,-2.42,0.0,0.0,0.0,-7.58,0.23,-6.2
1738247957.9188266,67745,0,0,,0.0,-0.83,0.32,0.43,0.15,-0.92,-3.34,-0.24,-6.02,0.45,-2.39,0.0,0.0,0.0,-7.99,0.3,-5.67
1738247957.9361851,67746,0,0,,0.0,-0.82,0.31,0.45,0.15,-1.07,-3.93,-0.33,-7.16,-0.07,-3.04,0.0,0.0,0.0,-8.2,0.33,-5.36
1738247957.9510224,67747,0,0,,0.0,-0.81,0.3,0.49,0.16,-1.04,-4.2,-0.37,-7.82,0.06,-3.42,0.0,0.0,0.0,-8.62,0.37,-4.65
1738247957.9689465,67748,0,0,,0.0,-0.78,0.28,0.53,0.16,-0.97,-4.65,-0.42,-8.92,0.19,-3.99,0.0,0.0,0.0,-9.01,0.38,-3.83
1738247957.9857936,67749,0,0,,0.0,-0.77,0.27,0.55,0.17,-1.08,-4.98,-0.45,-10.19,0.85,-4.27,0.0,0.0,0.0,-9.19,0.37,-3.39
1738247958.0009658,67750,0,0,,0.0,-0.75,0.26,0.59,0.18,-1.21,-5.13,-0.46,-11.96,1.21,-5.08,0.0,0.0,0.0,-9.48,0.36,-2.44
1738247958.0195553,67751,0,0,,0.0,-0.72,0.23,0.63,0.18,-1.36,-5.35,-0.46,-12.34,1.07,-5.46,0.0,0.0,0.0,-9.69,0.33,-1.43
1738247958.0354357,67752,0,0,,0.0,-0.7,0.22,0.65,0.18,-1.2,-5.42,-0.47,-13.23,0.85,-7.51,0.0,0.0,0.0,-9.75,0.3,-0.92
1738247958.0507805,67753,0,0,,0.0,-0.67,0.21,0.68,0.19,-1.05,-5.38,-0.42,-14.26,0.88,-7.28,0.0,0.0,0.0,-9.8,0.23,0.09
1738247958.0698273,67754,0,0,,0.0,-0.64,0.19,0.72,0.2,-0.73,-5.22,-0.34,-14.42,1.07,-7.8,0.0,0.0,0.0,-9.74,0.16,1.07
1738247958.0858057,67755,0,0,,0.0,-0.62,0.18,0.73,0.2,-0.47,-4.9,-0.24,-14.03,1.11,-7.37,0.0,0.0,0.0,-9.68,0.13,1.53
1738247958.1007214,67756,0,0,,0.0,-0.59,0.17,0.76,0.21,-0.24,-4.42,-0.17,-14.01,0.61,-7.51,0.0,0.0,0.0,-9.51,0.09,2.38
1738247958.1186337,67757,0,0,,0.0,-0.56,0.16,0.78,0.22,-0.11,-4.16,-0.12,-13.81,0.12,-7.11,0.0,0.0,0.0,-9.29,0.07,3.11
1738247958.1360881,67758,0,0,,0.0,-0.55,0.16,0.79,0.22,0.39,-3.56,-0.09,-12.17,-0.93,-7.33,0.0,0.0,0.0,-9.18,0.07,3.43
1738247958.151153,67759,0,0,,0.0,-0.52,0.16,0.81,0.23,0.79,-2.82,-0.05,-9.98,0.12,-7.49,0.0,0.0,0.0,-8.97,0.11,3.96
1738247958.1694102,67760,0,0,,0.0,-0.5,0.16,0.81,0.24,0.82,-2.37,0.01,-9.08,0.7,-8.03,0.0,0.0,0.0,-8.8,0.18,4.32
1738247958.1866827,67761,0,0,,0.0,-0.5,0.16,0.82,0.24,0.5,-1.32,0.11,-8.8,1.64,-7.59,0.0,0.0,0.0,-8.74,0.21,4.43
1738247958.201738,67762,0,0,,0.0,-0.49,0.16,0.82,0.24,-0.06,-0.26,0.14,-7.88,1.33,-8.17,0.0,0.0,0.0,-8.69,0.24,4.52
1738247958.2191145,67763,0,0,,0.0,-0.5,0.16,0.82,0.24,-0.31,0.26,0.16,-8.16,0.95,-7.52,0.0,0.0,0.0,-8.74,0.23,4.44
1738247958.2364197,67764,0,0,,0.0,-0.5,0.16,0.82,0.23,-0.6,1.1,0.15,-8.82,0.65,-6.85,0.0,0.0,0.0,-8.78,0.22,4.34
1738247958.251853,67765,0,0,,0.0,-0.52,0.16,0.81,0.23,-0.64,1.5,0.15,-12.03,0.96,4.79,0.0,0.0,0.0,-8.9,0.19,4.1
1738247958.269306,67766,0,0,,0.0,-0.52,0.16,0.81,0.22,-0.33,1.02,0.13,-16.69,0.34,21.55,0.0,0.0,0.0,-8.94,0.2,4.0
1738247958.2867153,67767,0,0,,0.0,-0.52,0.16,0.81,0.22,0.04,-0.2,0.25,-9.81,-1.97,1.29,0.0,0.0,0.0,-8.93,0.22,4.02
1738247958.301407,67768,0,0,,0.0,-0.52,0.16,0.81,0.22,0.41,0.6,0.28,-6.15,-0.56,-5.58,0.0,0.0,0.0,-8.96,0.31,3.96
1738247958.3197393,67769,0,0,,0.0,-0.53,0.17,0.8,0.22,0.27,0.95,0.23,-11.57,1.54,4.98,0.0,0.0,0.0,-9.03,0.36,3.79
1738247958.3367019,67770,0,0,,0.0,-0.53,0.17,0.8,0.21,-0.76,1.01,0.35,-10.67,2.08,1.13,0.0,0.0,0.0,-9.06,0.36,3.71
1738247958.3524864,67771,0,0,,0.0,-0.54,0.16,0.8,0.2,-1.24,0.87,0.36,-9.32,1.88,2.03,0.0,0.0,0.0,-9.13,0.34,3.56
1738247958.369493,67772,0,0,,0.0,-0.55,0.16,0.8,0.19,-1.06,0.8,0.39,-9.12,0.77,3.0,0.0,0.0,0.0,-9.18,0.35,3.42
1738247958.387201,67773,0,0,,0.0,-0.55,0.16,0.8,0.19,-0.24,0.87,0.46,-8.94,0.81,2.04,0.0,0.0,0.0,-9.2,0.39,3.34
1738247958.4023144,67774,0,0,,0.0,-0.56,0.16,0.79,0.19,0.27,0.72,0.37,-8.99,0.99,3.15,0.0,0.0,0.0,-9.25,0.47,3.2
1738247958.4195416,67775,0,0,,0.0,-0.56,0.17,0.79,0.19,0.41,0.65,0.39,-9.12,-0.19,1.75,0.0,0.0,0.0,-9.29,0.57,3.08
1738247958.4372723,67776,0,0,,0.0,-0.56,0.17,0.79,0.19,0.57,0.69,0.38,-9.85,0.78,1.39,0.0,0.0,0.0,-9.3,0.62,3.02
1738247958.4522505,67777,0,0,,0.0,-0.57,0.18,0.78,0.18,0.09,0.69,0.36,-10.14,1.16,1.71,0.0,0.0,0.0,-9.34,0.7,2.89
1738247958.469803,67778,0,0,,0.0,-0.57,0.18,0.78,0.18,-0.11,0.68,0.37,-9.99,1.31,1.15,0.0,0.0,0.0,-9.37,0.75,2.77
1738247958.4871154,67779,0,0,,0.0,-0.57,0.18,0.78,0.18,-0.32,0.63,0.35,-9.92,1.06,0.98,0.0,0.0,0.0,-9.38,0.78,2.71
1738247958.5022516,67780,0,0,,0.0,-0.58,0.18,0.78,0.17,-0.25,0.61,0.31,-10.01,1.15,1.65,0.0,0.0,0.0,-9.41,0.82,2.61
1738247958.5201735,67781,0,0,,0.0,-0.58,0.18,0.77,0.17,-0.12,0.58,0.26,-9.95,0.82,2.15,0.0,0.0,0.0,-9.44,0.87,2.5
1738247958.5367734,67782,0,0,,0.0,-0.58,0.18,0.77,0.17,0.2,0.61,0.21,-9.37,0.86,1.74,0.0,0.0,0.0,-9.45,0.89,2.44
1738247958.552261,67783,0,0,,0.0,-0.59,0.19,0.77,0.17,0.43,0.67,0.15,-9.61,0.93,2.51,0.0,0.0,0.0,-9.48,0.94,2.32
1738247958.5702076,67784,0,0,,0.0,-0.59,0.2,0.76,0.17,0.49,0.68,0.13,-9.27,1.21,2.36,0.0,0.0,0.0,-9.5,0.98,2.18
1738247958.5869267,67785,0,0,,0.0,-0.59,0.2,0.76,0.17,0.48,0.75,0.11,-9.17,1.64,1.82,0.0,0.0,0.0,-9.52,1.0,2.11
1738247958.6016495,67786,0,0,,0.0,-0.6,0.2,0.76,0.17,0.43,0.75,0.07,-9.45,1.65,1.09,0.0,0.0,0.0,-9.55,1.03,1.96
1738247958.6197805,67787,0,0,,0.0,-0.6,0.21,0.75,0.17,0.42,0.75,0.06,-9.6,1.52,1.37,0.0,0.0,0.0,-9.57,1.06,1.81
1738247958.6370814,67788,0,0,,0.0,-0.61,0.21,0.75,0.17,0.43,0.7,0.02,-9.84,1.33,1.37,0.0,0.0,0.0,-9.59,1.07,1.74
1738247958.65244,67789,0,0,,0.0,-0.61,0.21,0.74,0.17,0.38,0.65,0.03,-9.94,1.38,0.51,0.0,0.0,0.0,-9.61,1.09,1.61
1738247958.6696455,67790,0,0,,0.0,-0.61,0.22,0.74,0.17,0.36,0.63,0.03,-10.28,0.7,0.61,0.0,0.0,0.0,-9.62,1.1,1.49
1738247958.6871111,67791,0,0,,0.0,-0.62,0.22,0.74,0.17,0.3,0.56,0.04,-9.8,0.99,0.32,0.0,0.0,0.0,-9.63,1.11,1.43
1738247958.7030141,67792,0,0,,0.0,-0.62,0.22,0.73,0.17,0.2,0.63,0.04,-9.77,1.12,0.91,0.0,0.0,0.0,-9.65,1.12,1.31
1738247958.720046,67793,0,0,,0.0,-0.62,0.22,0.73,0.17,0.2,0.63,0.03,-9.89,1.22,1.5,0.0,0.0,0.0,-9.66,1.14,1.19
1738247958.7373087,67794,0,0,,0.0,-0.63,0.23,0.73,0.17,0.23,0.65,0.03,-9.32,1.32,0.63,0.0,0.0,0.0,-9.67,1.14,1.13
1738247958.752294,67795,0,0,,0.0,-0.63,0.23,0.72,0.17,0.28,0.7,0.01,-9.69,1.31,0.65,0.0,0.0,0.0,-9.68,1.15,1.0
1738247958.7698832,67796,0,0,,0.0,-0.63,0.23,0.72,0.17,0.3,0.72,0.0,-9.66,1.46,0.48,0.0,0.0,0.0,-9.69,1.15,0.85
1738247958.7872627,67797,0,0,,0.0,-0.64,0.23,0.71,0.17,0.33,0.76,-0.01,-9.76,1.38,0.77,0.0,0.0,0.0,-9.7,1.16,0.78
1738247958.8026564,67798,0,0,,0.0,-0.64,0.24,0.71,0.17,0.35,0.76,-0.02,-9.51,1.55,-0.04,0.0,0.0,0.0,-9.71,1.16,0.63
1738247958.8204556,67799,0,0,,0.0,-0.65,0.24,0.7,0.17,0.35,0.78,-0.02,-9.57,1.5,-0.09,0.0,0.0,0.0,-9.72,1.16,0.47
1738247958.8376627,67800,0,0,,0.0,-0.65,0.24,0.7,0.17,0.27,0.84,-0.03,-10.1,1.47,0.66,0.0,0.0,0.0,-9.72,1.16,0.38
1738247958.85332,67801,0,0,,0.0,-0.65,0.25,0.69,0.17,0.21,0.85,-0.03,-9.97,1.35,-0.61,0.0,0.0,0.0,-9.73,1.15,0.22
1738247958.870137,67802,0,0,,0.0,-0.66,0.25,0.69,0.17,0.18,0.88,-0.02,-10.25,1.24,-0.26,0.0,0.0,0.0,-9.73,1.15,0.05
1738247958.8875203,67803,0,0,,0.0,-0.66,0.25,0.68,0.17,0.29,0.94,-0.03,-10.3,1.11,0.06,0.0,0.0,0.0,-9.73,1.14,-0.04
1738247958.9034214,67804,0,0,,0.0,-0.67,0.25,0.68,0.17,0.32,0.96,-0.04,-10.42,0.98,0.23,0.0,0.0,0.0,-9.73,1.14,-0.22
1738247958.9201424,67805,0,0,,0.0,-0.68,0.26,0.67,0.17,0.35,1.0,-0.05,-10.36,1.14,-0.46,0.0,0.0,0.0,-9.73,1.12,-0.42
1738247958.93764,67806,0,0,,0.0,-0.68,0.26,0.66,0.17,0.39,1.09,-0.06,-10.31,1.16,-0.75,0.0,0.0,0.0,-9.72,1.11,-0.53
1738247958.9538107,67807,0,0,,0.0,-0.69,0.26,0.66,0.17,0.41,1.19,-0.09,-10.21,1.28,-0.58,0.0,0.0,0.0,-9.71,1.09,-0.76
1738247958.9702258,67808,0,0,,0.0,-0.69,0.27,0.65,0.17,0.39,1.21,-0.11,-10.12,1.19,-1.24,0.0,0.0,0.0,-9.69,1.07,-1.0
1738247958.987355,67809,0,0,,0.0,-0.7,0.27,0.64,0.17,0.31,1.31,-0.13,-10.47,0.69,-0.67,0.0,0.0,0.0,-9.68,1.05,-1.12
1738247959.00397,67810,0,0,,0.0,-0.71,0.27,0.63,0.17,0.28,1.41,-0.19,-9.95,1.21,-1.2,0.0,0.0,0.0,-9.65,1.01,-1.39
1738247959.0204558,67811,0,0,,0.0,-0.71,0.27,0.62,0.17,0.24,1.45,-0.2,-10.11,1.12,-1.25,0.0,0.0,0.0,-9.61,0.97,-1.67
1738247959.0382342,67812,0,0,,0.0,-0.72,0.27,0.61,0.17,0.15,1.54,-0.26,-10.02,1.23,-1.37,0.0,0.0,0.0,-9.59,0.94,-1.81
1738247959.0538657,67813,0,0,,0.0,-0.73,0.27,0.6,0.17,0.11,1.56,-0.34,-10.77,2.59,-2.38,0.0,0.0,0.0,-9.53,0.88,-2.1
1738247959.0710769,67814,0,0,,0.0,-0.74,0.27,0.59,0.16,0.03,1.63,-0.39,-11.6,0.87,-0.15,0.0,0.0,0.0,-9.47,0.8,-2.41
1738247959.087699,67815,0,0,,0.0,-0.75,0.27,0.58,0.16,-0.1,1.64,-0.44,-9.46,0.76,-3.07,0.0,0.0,0.0,-9.43,0.76,-2.56
1738247959.1046057,67816,0,0,,0.0,-0.76,0.27,0.57,0.16,0.05,1.81,-0.46,-11.08,-0.84,-0.5,0.0,0.0,0.0,-9.34,0.68,-2.88
1738247959.1207495,67817,0,0,,0.0,-0.77,0.27,0.56,0.16,0.15,1.87,-0.54,-10.39,0.21,-0.67,0.0,0.0,0.0,-9.24,0.57,-3.22
1738247959.138129,67818,0,0,,0.0,-0.78,0.27,0.54,0.16,0.37,1.98,-0.55,-10.69,-0.08,-0.54,0.0,0.0,0.0,-9.18,0.51,-3.39
1738247959.1550646,67819,0,0,,0.0,-0.79,0.28,0.53,0.16,0.52,2.17,-0.57,-10.55,-0.64,0.09,0.0,0.0,0.0,-9.04,0.38,-3.77
1738247959.1714313,67820,0,0,,0.0,-0.8,0.28,0.51,0.16,0.72,2.3,-0.54,-10.75,0.36,1.05,0.0,0.0,0.0,-8.86,0.22,-4.19
1738247959.1881223,67821,0,0,,0.0,-0.81,0.29,0.49,0.17,1.1,2.53,-0.39,-10.87,1.51,0.94,0.0,0.0,0.0,-8.75,0.14,-4.4
1738247959.2049093,67822,0,0,,0.0,-0.81,0.29,0.47,0.17,1.09,2.77,-0.04,-12.76,3.75,-1.78,0.0,0.0,0.0,-8.51,0.02,-4.86
1738247959.2212021,67823,0,0,,0.0,-0.83,0.3,0.45,0.16,0.89,2.94,0.12,-15.74,2.24,-2.71,0.0,0.0,0.0,-8.21,-0.02,-5.35
1738247959.2387,67824,0,0,,0.0,-0.84,0.31,0.42,0.16,0.44,3.23,0.19,-15.25,1.89,-3.37,0.0,0.0,0.0,-8.04,-0.03,-5.6
1738247959.2559292,67825,0,0,,0.0,-0.84,0.31,0.41,0.15,0.05,3.13,0.2,-13.05,1.7,-4.43,0.0,0.0,0.0,-7.68,-0.02,-6.09
1738247959.2713916,67826,0,0,,0.0,-0.86,0.32,0.38,0.14,-0.07,3.03,0.23,-12.25,1.37,-3.09,0.0,0.0,0.0,-7.32,0.03,-6.52
1738247959.2886298,67827,0,0,,0.0,-0.86,0.32,0.37,0.13,-0.44,2.65,0.34,-12.0,1.54,-2.5,0.0,0.0,0.0,-7.15,0.08,-6.7
1738247959.3057303,67828,0,0,,0.0,-0.87,0.32,0.36,0.12,-0.47,1.93,0.45,-10.46,-0.53,-0.93,0.0,0.0,0.0,-6.87,0.21,-6.99
1738247959.3218555,67829,0,0,,0.0,-0.87,0.33,0.35,0.11,-0.27,1.54,0.41,-8.61,-0.16,-1.41,0.0,0.0,0.0,-6.68,0.28,-7.17
1738247959.3389277,67830,0,0,,0.0,-0.87,0.33,0.34,0.12,0.3,0.76,0.37,-7.25,0.28,-1.72,0.0,0.0,0.0,-6.62,0.28,-7.22
1738247959.3562148,67831,0,0,,0.0,-0.87,0.34,0.34,0.12,0.54,-0.08,0.35,-6.46,-0.17,-1.72,0.0,0.0,0.0,-6.6,0.25,-7.24
1738247959.3714635,67832,0,0,,0.0,-0.87,0.34,0.35,0.12,0.55,-0.51,0.34,-5.71,-0.63,-1.62,0.0,0.0,0.0,-6.7,0.22,-7.15
1738247959.3889723,67833,0,0,,0.0,-0.86,0.34,0.36,0.13,0.53,-1.33,0.24,-5.32,-0.3,-1.83,0.0,0.0,0.0,-6.79,0.2,-7.06
1738247959.4058757,67834,0,0,,0.0,-0.85,0.34,0.37,0.14,0.29,-2.09,0.12,-5.48,0.07,-1.92,0.0,0.0,0.0,-7.05,0.17,-6.81
1738247959.421551,67835,0,0,,0.0,-0.85,0.34,0.39,0.14,0.09,-2.45,0.07,-5.95,-0.03,-1.98,0.0,0.0,0.0,-7.38,0.18,-6.44
1738247959.4395082,67836,0,0,,0.0,-0.83,0.33,0.42,0.15,-0.32,-3.11,-0.01,-6.57,-0.49,-2.15,0.0,0.0,0.0,-7.57,0.2,-6.21
1738247959.456108,67837,0,0,,0.0,-0.83,0.33,0.43,0.16,-0.61,-3.71,-0.12,-7.45,-0.79,-2.79,0.0,0.0,0.0,-7.99,0.25,-5.67
1738247959.4720082,67838,0,0,,0.0,-0.81,0.32,0.47,0.16,-0.67,-4.0,-0.18,-8.08,-0.41,-3.4,0.0,0.0,0.0,-8.42,0.28,-5.01
1738247959.4889746,67839,0,0,,0.0,-0.79,0.3,0.5,0.17,-0.73,-4.46,-0.26,-8.5,-0.44,-3.71,0.0,0.0,0.0,-8.62,0.3,-4.64
1738247959.5061448,67840,0,0,,0.0,-0.78,0.3,0.52,0.18,-0.91,-4.79,-0.33,-10.01,0.7,-4.14,0.0,0.0,0.0,-9.01,0.31,-3.83
1738247959.5217733,67841,0,0,,0.0,-0.76,0.28,0.56,0.18,-1.34,-5.04,-0.36,-11.36,1.41,-4.47,0.0,0.0,0.0,-9.34,0.33,-2.94
1738247959.5394123,67842,0,0,,0.0,-0.73,0.26,0.6,0.19,-1.58,-5.15,-0.37,-11.95,1.36,-4.64,0.0,0.0,0.0,-9.59,0.34,-1.97
1738247959.556753,67843,0,0,,0.0,-0.72,0.24,0.62,0.19,-1.88,-5.31,-0.42,-13.09,1.11,-6.21,0.0,0.0,0.0,-9.68,0.33,-1.47
1738247959.5718315,67844,0,0,,0.0,-0.69,0.22,0.66,0.19,-1.84,-5.29,-0.47,-14.68,0.2,-6.38,0.0,0.0,0.0,-9.79,0.28,-0.46
1738247959.589429,67845,0,0,,0.0,-0.66,0.2,0.7,0.19,-1.62,-5.23,-0.5,-14.88,0.12,-6.64,0.0,0.0,0.0,-9.79,0.19,0.52
1738247959.607476,67846,0,0,,0.0,-0.64,0.19,0.72,0.2,-0.83,-5.02,-0.53,-14.97,0.4,-6.88,0.0,0.0,0.0,-9.75,0.13,1.0
1738247959.6227,67847,0,0,,0.0,-0.61,0.17,0.74,0.21,-0.1,-4.71,-0.45,-13.84,0.27,-6.31,0.0,0.0,0.0,-9.62,0.03,1.9
1738247959.6402643,67848,0,0,,0.0,-0.58,0.17,0.77,0.22,0.29,-4.52,-0.4,-13.62,0.09,-6.29,0.0,0.0,0.0,-9.42,0.0,2.71
1738247959.6581695,67849,0,0,,0.0,-0.56,0.16,0.78,0.23,1.02,-4.04,-0.32,-12.2,-0.19,-6.14,0.0,0.0,0.0,-9.3,-0.01,3.08
1738247959.6735125,67850,0,0,,0.0,-0.53,0.17,0.79,0.24,1.46,-3.44,-0.16,-10.79,0.19,-6.24,0.0,0.0,0.0,-9.07,0.04,3.72
1738247959.690522,67851,0,0,,0.0,-0.51,0.17,0.81,0.26,1.53,-3.08,-0.06,-9.09,1.55,-6.63,0.0,0.0,0.0,-8.85,0.15,4.21
1738247959.708531,67852,0,0,,0.0,-0.5,0.17,0.81,0.26,1.35,-2.19,0.11,-8.52,1.79,-6.85,0.0,0.0,0.0,-8.76,0.22,4.4
1738247959.724443,67853,0,0,,0.0,-0.48,0.18,0.82,0.27,0.67,-1.08,0.16,-7.37,2.04,-8.04,0.0,0.0,0.0,-8.63,0.32,4.62
1738247959.741485,67854,0,0,,0.0,-0.48,0.18,0.82,0.26,0.24,-0.46,0.17,-7.92,1.42,-7.88,0.0,0.0,0.0,-8.62,0.35,4.65
1738247959.758897,67855,0,0,,0.0,-0.49,0.18,0.81,0.26,-0.44,0.65,0.16,-8.3,1.03,-7.73,0.0,0.0,0.0,-8.65,0.35,4.6
1738247959.7747135,67856,0,0,,0.0,-0.5,0.18,0.81,0.26,-0.75,1.51,0.18,-8.88,1.07,-6.46,0.0,0.0,0.0,-8.76,0.32,4.38
1738247959.7912345,67857,0,0,,0.0,-0.51,0.17,0.8,0.25,-0.89,1.79,0.21,-18.0,0.95,27.24,0.0,0.0,0.0,-8.91,0.28,4.07
1738247959.80882,67858,0,0,,0.0,-0.52,0.17,0.8,0.24,-0.57,1.27,0.21,-22.97,-3.93,30.28,0.0,0.0,0.0,-8.96,0.28,3.96
1738247959.8257785,67859,0,0,,0.0,-0.52,0.17,0.8,0.24,-0.35,-0.19,0.36,-4.47,-2.37,-7.79,0.0,0.0,0.0,-8.95,0.3,3.98
1738247959.8415108,67860,0,0,,0.0,-0.52,0.18,0.8,0.23,-0.1,0.77,0.37,-9.15,1.05,0.29,0.0,0.0,0.0,-8.98,0.37,3.9
1738247959.8593094,67861,0,0,,0.0,-0.53,0.18,0.8,0.23,-0.1,1.18,0.31,-13.25,0.19,2.85,0.0,0.0,0.0,-9.02,0.39,3.8
1738247959.875161,67862,0,0,,0.0,-0.53,0.18,0.8,0.22,-0.96,1.17,0.4,-10.35,2.48,1.38,0.0,0.0,0.0,-9.11,0.41,3.6
1738247959.8917458,67863,0,0,,0.0,-0.54,0.17,0.79,0.21,-1.33,1.09,0.4,-8.8,0.34,2.32,0.0,0.0,0.0,-9.17,0.39,3.42
1738247959.909402,67864,0,0,,0.0,-0.55,0.17,0.79,0.2,-1.04,0.92,0.41,-8.99,-0.39,2.81,0.0,0.0,0.0,-9.2,0.39,3.34
1738247959.925867,67865,0,0,,0.0,-0.56,0.17,0.79,0.2,0.02,0.99,0.47,-9.21,1.09,2.14,0.0,0.0,0.0,-9.26,0.46,3.17
1738247959.9419916,67866,0,0,,0.0,-0.56,0.18,0.78,0.2,0.53,0.77,0.36,-9.17,1.03,1.95,0.0,0.0,0.0,-9.31,0.55,3.02
1738247959.959542,67867,0,0,,0.0,-0.56,0.19,0.78,0.2,0.55,0.7,0.4,-9.24,0.68,0.94,0.0,0.0,0.0,-9.33,0.6,2.95
1738247959.9755983,67868,0,0,,0.0,-0.57,0.19,0.78,0.2,0.37,0.78,0.39,-10.73,1.09,1.65,0.0,0.0,0.0,-9.36,0.7,2.81
1738247959.9918756,67869,0,0,,0.0,-0.57,0.19,0.77,0.19,0.12,0.78,0.37,-9.72,1.36,1.03,0.0,0.0,0.0,-9.4,0.77,2.67
1738247960.0090501,67870,0,0,,0.0,-0.58,0.19,0.77,0.19,-0.36,0.74,0.37,-9.67,1.47,1.48,0.0,0.0,0.0,-9.41,0.79,2.61
1738247960.025335,67871,0,0,,0.0,-0.58,0.19,0.77,0.18,-0.43,0.73,0.32,-9.57,1.51,1.53,0.0,0.0,0.0,-9.45,0.83,2.48
1738247960.0420167,67872,0,0,,0.0,-0.59,0.19,0.77,0.18,-0.42,0.72,0.29,-9.5,0.88,1.96,0.0,0.0,0.0,-9.47,0.86,2.35
1738247960.0590894,67873,0,0,,0.0,-0.59,0.2,0.76,0.17,-0.11,0.75,0.22,-9.58,0.68,2.17,0.0,0.0,0.0,-9.49,0.88,2.28
1738247960.0747232,67874,0,0,,0.0,-0.59,0.2,0.76,0.17,0.31,0.77,0.15,-9.52,1.02,1.58,0.0,0.0,0.0,-9.52,0.92,2.14
1738247960.0921583,67875,0,0,,0.0,-0.6,0.2,0.76,0.17,0.43,0.8,0.12,-9.73,1.07,2.06,0.0,0.0,0.0,-9.55,0.96,1.98
1738247960.10894,67876,0,0,,0.0,-0.6,0.21,0.75,0.17,0.53,0.82,0.07,-9.44,1.43,1.23,0.0,0.0,0.0,-9.56,0.97,1.9
1738247960.124387,67877,0,0,,0.0,-0.61,0.21,0.75,0.18,0.52,0.86,0.04,-9.59,1.45,1.4,0.0,0.0,0.0,-9.59,1.0,1.73
1738247960.1413844,67878,0,0,,0.0,-0.61,0.22,0.74,0.18,0.51,0.86,0.02,-9.47,1.57,0.47,0.0,0.0,0.0,-9.62,1.02,1.57
1738247960.1589541,67879,0,0,,0.0,-0.62,0.22,0.74,0.18,0.42,0.81,0.0,-9.65,1.39,0.18,0.0,0.0,0.0,-9.63,1.03,1.49
1738247960.174286,67880,0,0,,0.0,-0.62,0.22,0.73,0.18,0.4,0.77,-0.01,-10.03,0.73,0.34,0.0,0.0,0.0,-9.65,1.04,1.33
1738247960.1912131,67881,0,0,,0.0,-0.62,0.23,0.73,0.18,0.39,0.69,-0.01,-9.79,1.0,0.04,0.0,0.0,0.0,-9.67,1.05,1.2
1738247960.2089677,67882,0,0,,0.0,-0.63,0.23,0.72,0.18,0.34,0.66,0.01,-9.99,1.04,0.69,0.0,0.0,0.0,-9.68,1.05,1.13
1738247960.2234278,67883,0,0,,0.0,-0.63,0.23,0.72,0.18,0.18,0.62,0.01,-9.82,1.34,0.08,0.0,0.0,0.0,-9.69,1.06,1.01
1738247960.241003,67884,0,0,,0.0,-0.63,0.23,0.72,0.18,0.1,0.62,0.02,-9.91,0.94,0.9,0.0,0.0,0.0,-9.7,1.06,0.89
1738247960.2582855,67885,0,0,,0.0,-0.64,0.23,0.71,0.18,0.08,0.63,0.01,-9.6,1.07,0.52,0.0,0.0,0.0,-9.71,1.06,0.83
1738247960.272926,67886,0,0,,0.0,-0.64,0.24,0.71,0.18,0.17,0.67,0.0,-9.58,1.05,0.48,0.0,0.0,0.0,-9.72,1.07,0.7
1738247960.2908683,67887,0,0,,0.0,-0.64,0.24,0.71,0.18,0.25,0.71,-0.01,-9.69,1.02,0.73,0.0,0.0,0.0,-9.73,1.07,0.56
1738247960.3078089,67888,0,0,,0.0,-0.65,0.24,0.7,0.18,0.39,0.75,-0.03,-9.26,1.43,0.05,0.0,0.0,0.0,-9.73,1.07,0.48
1738247960.3239396,67889,0,0,,0.0,-0.65,0.24,0.7,0.18,0.4,0.84,-0.04,-9.79,1.47,0.43,0.0,0.0,0.0,-9.74,1.06,0.32
1738247960.341154,67890,0,0,,0.0,-0.66,0.25,0.69,0.18,0.36,0.86,-0.05,-9.63,1.4,-0.73,0.0,0.0,0.0,-9.74,1.06,0.15
1738247960.358861,67891,0,0,,0.0,-0.66,0.25,0.68,0.18,0.27,0.84,-0.04,-9.79,1.18,-0.56,0.0,0.0,0.0,-9.74,1.05,0.07
1738247960.373097,67892,0,0,,0.0,-0.66,0.25,0.68,0.18,0.24,0.89,-0.07,-9.97,1.27,-0.48,0.0,0.0,0.0,-9.75,1.04,-0.09
1738247960.3910587,67893,0,0,,0.0,-0.67,0.25,0.67,0.18,0.22,0.89,-0.06,-9.92,1.24,-0.78,0.0,0.0,0.0,-9.74,1.03,-0.26
1738247960.4085453,67894,0,0,,0.0,-0.68,0.26,0.67,0.18,0.2,0.94,-0.08,-10.01,1.08,-0.57,0.0,0.0,0.0,-9.74,1.02,-0.36
1738247960.4228091,67895,0,0,,0.0,-0.68,0.26,0.66,0.18,0.22,0.96,-0.09,-10.1,1.25,-1.15,0.0,0.0,0.0,-9.73,1.0,-0.54
1738247960.441241,67896,0,0,,0.0,-0.69,0.26,0.66,0.18,0.25,0.99,-0.09,-10.67,0.86,-0.22,0.0,0.0,0.0,-9.72,0.98,-0.73
1738247960.4585917,67897,0,0,,0.0,-0.69,0.26,0.65,0.18,0.35,1.01,-0.12,-10.16,1.18,-1.35,0.0,0.0,0.0,-9.72,0.96,-0.83
1738247960.4732318,67898,0,0,,0.0,-0.69,0.27,0.64,0.18,0.37,1.08,-0.13,-10.43,0.86,-1.28,0.0,0.0,0.0,-9.7,0.93,-1.04
1738247960.491206,67899,0,0,,0.0,-0.7,0.27,0.64,0.18,0.37,1.13,-0.15,-10.26,0.94,-1.01,0.0,0.0,0.0,-9.68,0.9,-1.26
1738247960.5088785,67900,0,0,,0.0,-0.71,0.27,0.63,0.18,0.28,1.2,-0.17,-10.3,0.75,-1.41,0.0,0.0,0.0,-9.66,0.88,-1.37
1738247960.5235388,67901,0,0,,0.0,-0.71,0.27,0.62,0.18,0.16,1.32,-0.21,-10.46,0.76,-1.51,0.0,0.0,0.0,-9.63,0.83,-1.62
1738247960.54134,67902,0,0,,0.0,-0.72,0.27,0.61,0.18,0.13,1.35,-0.25,-10.74,0.76,-0.99,0.0,0.0,0.0,-9.59,0.78,-1.88
1738247960.5598106,67903,0,0,,0.0,-0.73,0.27,0.6,0.18,0.14,1.42,-0.31,-11.04,1.73,-1.98,0.0,0.0,0.0,-9.56,0.75,-2.01
1738247960.5735877,67904,0,0,,0.0,-0.74,0.28,0.59,0.17,0.09,1.55,-0.4,-11.91,0.85,-0.37,0.0,0.0,0.0,-9.5,0.68,-2.29
1738247960.591786,67905,0,0,,0.0,-0.75,0.28,0.58,0.17,0.12,1.53,-0.4,-9.67,0.19,-2.27,0.0,0.0,0.0,-9.44,0.59,-2.58
1738247960.6090615,67906,0,0,,0.0,-0.76,0.28,0.57,0.17,0.25,1.74,-0.44,-10.3,-0.25,-1.33,0.0,0.0,0.0,-9.39,0.55,-2.74
1738247960.624228,67907,0,0,,0.0,-0.76,0.28,0.56,0.17,0.32,1.91,-0.55,-10.36,0.57,-1.27,0.0,0.0,0.0,-9.29,0.43,-3.08
1738247960.6418529,67908,0,0,,0.0,-0.77,0.28,0.54,0.17,0.35,2.15,-0.55,-11.16,-0.46,0.1,0.0,0.0,0.0,-9.16,0.32,-3.46
1738247960.6596098,67909,0,0,,0.0,-0.79,0.28,0.52,0.17,0.44,2.24,-0.53,-10.7,-0.29,-0.61,0.0,0.0,0.0,-9.09,0.25,-3.66
1738247960.6740668,67910,0,0,,0.0,-0.79,0.28,0.51,0.17,0.77,2.52,-0.43,-11.23,-0.98,0.53,0.0,0.0,0.0,-8.91,0.12,-4.09
1738247960.6921732,67911,0,0,,0.0,-0.8,0.29,0.49,0.18,0.93,2.64,-0.39,-12.11,0.83,0.95,0.0,0.0,0.0,-8.68,-0.01,-4.54
1738247960.7095702,67912,0,0,,0.0,-0.82,0.3,0.46,0.18,1.14,2.8,-0.14,-12.78,1.92,0.34,0.0,0.0,0.0,-8.56,-0.07,-4.78
1738247960.7247968,67913,0,0,,0.0,-0.82,0.31,0.45,0.18,1.0,3.02,0.08,-14.41,3.47,-2.64,0.0,0.0,0.0,-8.27,-0.17,-5.26
1738247960.7428281,67914,0,0,,0.0,-0.83,0.31,0.42,0.17,0.33,3.33,0.03,-16.37,2.63,-4.41,0.0,0.0,0.0,-7.92,-0.22,-5.77
1738247960.7601426,67915,0,0,,0.0,-0.85,0.32,0.39,0.16,-0.08,3.3,0.05,-15.07,2.41,-4.63,0.0,0.0,0.0,-7.73,-0.21,-6.02
1738247960.7747111,67916,0,0,,0.0,-0.85,0.32,0.38,0.15,-0.57,3.1,0.15,-12.89,1.87,-2.85,0.0,0.0,0.0,-7.35,-0.13,-6.48
