Header,TimeStamp,QuatX,QuatY,QuatZ,QuatW,GyroX,GyroY,GyroZ,AccelX,AccelY,AccelZ,EulerX,EulerY,EulerZ,GravityX,GravityY,GravityZ,TimeStampGlob
,0,0.11,-0.01,-0.49,0.87,-0.22,0.2,-0.2,-0.94,2.51,9.72,0,0,0,-0.96,1.99,9.55,0.214727878570557
,0,0.11,-0,-0.49,0.87,-0.29,0.13,-0.15,0.03,2.32,9.56,0,0,0,-0.99,1.93,9.56,0.231440782546997
,0,0.11,-0,-0.49,0.86,-0.36,0.2,-0.2,0.04,1.87,9.99,0,0,0,-1.02,1.9,9.56,0.24666953086853
,0,0.11,0,-0.49,0.86,-0.28,0.1,-0.2,-0.83,1.69,10.14,0,0,0,-1.07,1.84,9.57,0.264932632446289
,0,0.11,0.01,-0.49,0.86,-0.27,0.48,-0.31,-0.78,1.47,9.92,0,0,0,-1.18,1.78,9.56,0.28162407875061
,0,0.11,0.01,-0.49,0.86,-0.18,0.74,-0.25,-1.87,1.26,10.35,0,0,0,-1.25,1.77,9.56,0.296377420425415
,0,0.12,0.02,-0.5,0.86,-0.07,0.87,-0.25,-0.52,1.31,9.41,0,0,0,-1.44,1.76,9.53,0.314583539962769
,0,0.12,0.03,-0.5,0.86,0.07,1.18,-0.17,0.42,1.7,9.64,0,0,0,-1.68,1.76,9.49,0.331824779510498
,0,0.13,0.04,-0.5,0.86,0.04,1.68,-0.3,1.08,1.86,9.58,0,0,0,-1.84,1.76,9.46,0.346782922744751
,0,0.14,0.06,-0.5,0.86,0.06,2.25,-0.39,0.19,2.27,10.71,0,0,0,-2.31,1.76,9.36,0.36481785774231
,0,0.15,0.09,-0.5,0.85,0.09,3.16,-0.56,-0.48,3.24,11.86,0,0,0,-2.93,1.74,9.19,0.381839275360107
,0,0.16,0.1,-0.5,0.85,-0.06,3.9,-0.65,-1.96,2.45,13.34,0,0,0,-3.29,1.71,9.07,0.39703631401062
,0,0.18,0.15,-0.49,0.84,-0.24,4.41,-0.83,0.55,5.06,11.4,0,0,0,-4.15,1.58,8.73,0.415275812149048
,0,0.21,0.2,-0.49,0.82,-0.26,6.21,-0.69,-0.65,3.87,12.49,0,0,0,-5.26,1.5,8.13,0.432178974151611
,0,0.23,0.23,-0.48,0.81,-0.05,7.59,-0.79,2.58,7.52,20.9,0,0,0,-5.86,1.45,7.72,0.446879625320435
,0,0.25,0.28,-0.48,0.79,-0.19,6.94,-1.12,-10.1,7.75,29.41,0,0,0,-6.72,1.23,7.02,0.465399742126465
,0,0.25,0.29,-0.48,0.79,-0.23,1.58,-1.11,2.06,6.46,14.73,0,0,0,-6.86,1.09,6.92,0.482258081436157
,0,0.25,0.29,-0.49,0.79,-0.09,-0.5,-0.57,4.63,6.37,8.27,0,0,0,-6.83,1.04,6.95,0.497708797454834
,0,0.24,0.29,-0.49,0.79,-0.22,-0.66,-0.41,3.3,5.86,8.72,0,0,0,-6.73,0.97,7.05,0.515140056610107
,0,0.23,0.28,-0.49,0.79,-0.16,-1.11,-0.02,3.19,5.78,8.4,0,0,0,-6.56,0.96,7.22,0.532551527023315
,0,0.23,0.27,-0.49,0.8,0.04,-1.77,0.46,2.63,5.02,7.62,0,0,0,-6.43,1,7.33,0.547923803329468
,0,0.22,0.25,-0.49,0.8,0.09,-2.04,0.65,1.57,2.93,8.08,0,0,0,-6.1,1.1,7.59,0.565912008285522
,0,0.22,0.23,-0.49,0.81,0.26,-2.53,0.87,1.17,2.27,8.18,0,0,0,-5.68,1.25,7.88,0.582901239395142
,0,0.21,0.21,-0.49,0.82,0.48,-2.97,0.84,-0.52,1.59,8.76,0,0,0,-5.44,1.33,8.04,0.597574710845947
,0,0.2,0.18,-0.49,0.83,0.54,-3.17,0.76,-1.49,2.11,9.42,0,0,0,-4.91,1.49,8.35,0.615399360656738
,0,0.19,0.15,-0.5,0.83,0.62,-3.44,0.6,-1.95,2.57,9.86,0,0,0,-4.31,1.65,8.64,0.632986068725586
,0,0.19,0.13,-0.5,0.84,0.73,-3.68,0.59,-2.95,3.02,10.27,0,0,0,-4,1.74,8.78,0.64849328994751
,0,0.18,0.1,-0.5,0.84,0.84,-3.74,0.64,-3.5,3.38,10.89,0,0,0,-3.32,1.94,9.01,0.665704011917114
,0,0.17,0.06,-0.5,0.85,1.05,-3.77,0.78,-4.05,3.86,11.29,0,0,0,-2.63,2.18,9.19,0.683305025100708
,0,0.16,0.04,-0.5,0.85,1.11,-3.72,0.97,-4.42,3.64,11.67,0,0,0,-2.27,2.3,9.25,0.699380874633789
,0,0.15,0,-0.5,0.85,1.11,-3.65,1.04,-5.33,3.78,12.77,0,0,0,-1.57,2.53,9.34,0.715992212295532
,0,0.14,-0.03,-0.49,0.86,0.96,-3.55,1.08,-5.43,3.54,12.96,0,0,0,-0.88,2.73,9.37,0.733612537384033
,0,0.14,-0.05,-0.49,0.86,0.93,-3.44,1.03,-5.88,3.36,13.02,0,0,0,-0.54,2.82,9.37,0.749211311340332
,0,0.13,-0.08,-0.49,0.86,0.99,-3.36,0.99,-6.57,3.63,11.3,0,0,0,0.1,3,9.33,0.766095161437988
,0,0.13,-0.11,-0.48,0.86,0.93,-3.04,0.94,-6.81,3.26,10.65,0,0,0,0.68,3.15,9.25,0.784046649932861
,0,0.12,-0.12,-0.48,0.86,0.62,-2.49,0.82,-8.24,0.99,10.51,0,0,0,0.93,3.2,9.22,0.799735546112061
,0,0.12,-0.14,-0.47,0.86,0.5,-2.19,0.71,-9.52,0.21,11.96,0,0,0,1.34,3.27,9.14,0.815973520278931
,0,0.11,-0.16,-0.47,0.86,0.42,-1.73,0.43,-11.56,-1.42,14.44,0,0,0,1.66,3.34,9.06,0.833783149719238
,0,0.11,-0.17,-0.47,0.86,0.81,-1.69,0.21,-12.81,-2.38,11.79,0,0,0,1.81,3.41,9.01,0.84972357749939
,0,0.11,-0.19,-0.47,0.86,1.03,-1.66,0.16,-13.3,-2.02,4.71,0,0,0,2.1,3.58,8.88,0.866389036178589
,0,0.11,-0.2,-0.47,0.85,0.8,-1.14,0.16,-13.19,-2.42,3.12,0,0,0,2.26,3.68,8.8,0.883736610412598
,0,0.11,-0.2,-0.47,0.85,0.04,-0.06,0.07,-13.31,-2.24,3.34,0,0,0,2.26,3.69,8.79,0.899603128433228
,0,0.11,-0.19,-0.47,0.86,-0.41,0.46,0.02,-5.44,2.82,7.97,0,0,0,2.15,3.56,8.87,0.917005777359009
,0,0.1,-0.17,-0.47,0.86,-1.63,1.03,0.39,9.14,3.82,13.8,0,0,0,1.99,3.29,9.01,0.933902978897095
,0,0.1,-0.17,-0.47,0.86,-1.49,0.94,0.27,5.18,-3.29,-1.68,0,0,0,1.92,3.16,9.08,0.950277805328369
,0,0.09,-0.14,-0.47,0.87,-1.6,1.8,0.08,0.09,-6.79,15.71,0,0,0,1.54,2.9,9.24,0.966896057128906
,0,0.1,-0.12,-0.47,0.87,-1.01,2.43,-0.36,-0.31,-6.07,17.25,0,0,0,1.09,2.76,9.34,0.983736276626587
,0,0.1,-0.11,-0.47,0.87,-0.35,2.13,-0.65,-0.59,4.29,11.67,0,0,0,0.88,2.73,9.37,0.999587297439575
,0,0.11,-0.09,-0.47,0.87,-0.22,2.09,-0.55,-0.79,4.26,15.47,0,0,0,0.48,2.69,9.41,1.01648759841919
,0,0.12,-0.07,-0.47,0.87,-0.33,1.91,-0.29,-3.77,3.51,15.94,0,0,0,0.15,2.64,9.44,1.03417706489563
,0,0.12,-0.07,-0.47,0.87,-0.42,1.4,-0.13,-5.63,3.15,17.43,0,0,0,0.02,2.6,9.45,1.05034923553467
,0,0.12,-0.06,-0.47,0.87,-0.34,0.79,-0.12,0.31,2.15,10.4,0,0,0,-0.08,2.53,9.47,1.06661462783813
,0,0.12,-0.05,-0.48,0.87,-0.51,0.53,-0.1,-1.14,1.79,10.97,0,0,0,-0.18,2.45,9.49,1.08358216285706
,0,0.11,-0.05,-0.48,0.87,-0.28,0.4,-0.13,-0.64,2.33,10,0,0,0,-0.22,2.42,9.49,1.0999059677124
,0,0.11,-0.05,-0.48,0.87,-0.23,0.39,-0.14,0.27,2.47,9.9,0,0,0,-0.28,2.38,9.5,1.1167938709259
,0,0.11,-0.04,-0.48,0.87,-0.2,0.2,-0.14,0,2.38,10.27,0,0,0,-0.33,2.34,9.51,1.13382840156555
,0,0.11,-0.04,-0.48,0.87,-0.15,0.2,-0.15,0.43,2.16,10.06,0,0,0,-0.35,2.33,9.51,1.14976119995117
,0,0.11,-0.04,-0.48,0.87,-0.11,0.22,-0.14,-0.67,2.32,10.35,0,0,0,-0.4,2.31,9.52,1.16699075698853
,0,0.11,-0.04,-0.48,0.87,-0.08,0.21,-0.14,-0.7,2.14,9.95,0,0,0,-0.44,2.3,9.52,1.184237241745
,0,0.11,-0.04,-0.48,0.87,-0.04,0.17,-0.04,-1.58,2.18,10.05,0,0,0,-0.46,2.29,9.52,1.19994711875916
,0,0.11,-0.04,-0.48,0.87,-0.03,0.11,-0.03,-0.67,2.24,9.7,0,0,0,-0.47,2.29,9.52,1.21716785430908
,0,0.12,-0.03,-0.48,0.87,-0.01,0.05,-0.05,-0.94,2.24,9.72,0,0,0,-0.49,2.28,9.52,1.23491454124451
,0,0.12,-0.03,-0.48,0.87,-0.01,0.11,-0.06,-0.99,2.03,10.32,0,0,0,-0.5,2.28,9.52,1.25021529197693
,0,0.12,-0.03,-0.48,0.87,0.02,0.08,-0.06,-1.06,2.34,9.5,0,0,0,-0.52,2.29,9.52,1.26684665679932
,0,0.12,-0.03,-0.48,0.87,0.05,0.08,-0.07,-0.57,2.39,10.13,0,0,0,-0.53,2.29,9.51,1.28424715995789
,0,0.12,-0.03,-0.48,0.87,0.07,0.04,-0.05,-0.28,2.02,9.54,0,0,0,-0.55,2.3,9.51,1.30037784576416
,0,0.12,-0.03,-0.48,0.87,0.08,0.06,-0.04,-0.37,2.2,9.61,0,0,0,-0.56,2.32,9.51,1.31696677207947
,0,0.12,-0.03,-0.48,0.87,0.09,0.09,-0.03,-0.72,2.16,9.71,0,0,0,-0.57,2.33,9.5,1.33414888381958
,0,0.12,-0.03,-0.48,0.87,0.11,0.06,-0.03,-0.61,2.17,9.49,0,0,0,-0.59,2.35,9.5,1.34999322891235
,0,0.12,-0.03,-0.48,0.87,0.11,0.06,-0.03,-1.15,2.24,9.96,0,0,0,-0.6,2.37,9.49,1.3668065071106
,0,0.12,-0.03,-0.48,0.87,0.11,0.03,-0.04,-0.3,2.19,9.54,0,0,0,-0.6,2.38,9.49,1.3848876953125
,0,0.12,-0.03,-0.48,0.87,0.1,-0.01,-0.04,-0.63,2.22,9.55,0,0,0,-0.6,2.39,9.48,1.40162038803101
,0,0.12,-0.03,-0.48,0.87,0.1,-0,-0.03,-0.97,2.28,9.65,0,0,0,-0.6,2.41,9.48,1.41753673553467
,0,0.12,-0.03,-0.48,0.87,0.08,-0.01,-0.04,-0.99,2.23,9.84,0,0,0,-0.61,2.42,9.48,1.43540382385254
,0,0.12,-0.03,-0.48,0.87,0.07,-0.04,-0.05,-0.69,2.44,9.59,0,0,0,-0.61,2.42,9.48,1.45152616500854
,0,0.12,-0.03,-0.48,0.87,0.06,-0.04,-0.05,-0.9,2.42,9.64,0,0,0,-0.61,2.43,9.47,1.46747875213623
,0,0.13,-0.03,-0.48,0.87,0.04,-0.02,-0.05,-0.84,2.49,9.75,0,0,0,-0.61,2.43,9.47,1.48473477363586
,0,0.13,-0.03,-0.48,0.87,0.03,-0.03,-0.05,-0.61,2.36,9.69,0,0,0,-0.61,2.44,9.47,1.50069141387939
,0,0.13,-0.03,-0.48,0.86,0.02,-0.02,-0.05,-0.36,2.54,9.62,0,0,0,-0.61,2.44,9.47,1.51768660545349
,0,0.13,-0.03,-0.49,0.86,0.01,0,-0.03,-0.31,2.52,9.6,0,0,0,-0.61,2.44,9.47,1.53533983230591
,0,0.13,-0.03,-0.49,0.86,0.01,0.01,-0.04,-0.75,2.47,9.69,0,0,0,-0.61,2.44,9.47,1.55205917358398
,0,0.13,-0.03,-0.49,0.86,0,0.03,-0.04,-0.41,2.23,9.44,0,0,0,-0.62,2.44,9.47,1.56789016723633
,0,0.13,-0.03,-0.49,0.86,-0.01,0.03,-0.04,-0.75,2.38,9.77,0,0,0,-0.63,2.44,9.47,1.58519411087036
,0,0.13,-0.03,-0.49,0.86,-0.01,0.05,-0.04,-1.22,2.16,9.76,0,0,0,-0.63,2.44,9.47,1.60220313072205
,0,0.13,-0.03,-0.49,0.86,-0.03,0.06,-0.07,-0.76,2.2,9.74,0,0,0,-0.65,2.43,9.47,1.61798214912415
,0,0.13,-0.03,-0.49,0.86,-0.03,0.05,-0.07,-0.63,2.23,9.71,0,0,0,-0.66,2.42,9.47,1.63579654693604
,0,0.13,-0.03,-0.49,0.86,-0.05,0.08,-0.07,-1.1,1.99,9.82,0,0,0,-0.67,2.41,9.47,1.65213489532471
,0,0.12,-0.03,-0.49,0.86,-0.1,0.05,-0.14,-1.05,2.03,9.89,0,0,0,-0.69,2.39,9.48,1.66777276992798
,0,0.12,-0.03,-0.49,0.86,-0.13,0,-0.18,-0.94,2.25,9.75,0,0,0,-0.7,2.38,9.48,1.68527722358704
,0,0.12,-0.03,-0.49,0.86,-0.19,-0.02,-0.26,-0.53,2.6,9.35,0,0,0,-0.71,2.34,9.49,1.70199275016785
,0,0.12,-0.03,-0.49,0.86,-0.21,0.03,-0.3,0,2.64,10.65,0,0,0,-0.73,2.3,9.5,1.71830940246582
,0,0.12,-0.02,-0.5,0.86,-0.24,0.02,-0.34,-0.93,2.7,9.6,0,0,0,-0.74,2.27,9.5,1.73633861541748
,0,0.12,-0.02,-0.5,0.86,-0.3,0.04,-0.46,-0.75,2.58,10.31,0,0,0,-0.76,2.22,9.52,1.75246357917786
,0,0.12,-0.02,-0.5,0.86,-0.31,0.25,-0.51,-0.21,2.44,9.54,0,0,0,-0.82,2.15,9.53,1.76859021186829
,0,0.12,-0.01,-0.51,0.85,-0.33,0.4,-0.51,-1.78,2.32,10.81,0,0,0,-0.87,2.12,9.53,1.78609728813171
,0,0.12,-0.01,-0.51,0.85,-0.2,0.49,-0.39,-0.29,1.82,9.57,0,0,0,-0.97,2.06,9.53,1.80338549613953
,0,0.12,-0.01,-0.51,0.85,-0.1,0.69,-0.4,-1.22,1.9,9.66,0,0,0,-1.1,2.03,9.52,1.81853342056274
,0,0.12,0,-0.51,0.85,0.01,0.86,-0.31,-0.53,1.98,9.95,0,0,0,-1.28,2.03,9.5,1.83575177192688
,0,0.13,0.01,-0.51,0.85,-0.04,1.07,-0.35,-0.6,1.68,9.58,0,0,0,-1.39,2.02,9.49,1.85355758666992
,0,0.13,0.02,-0.51,0.85,-0.09,1.37,-0.38,1.97,2.3,9.53,0,0,0,-1.64,1.99,9.45,1.86886596679688
,0,0.14,0.04,-0.52,0.84,-0.1,1.86,-0.43,3.07,2.6,9.59,0,0,0,-2.05,1.95,9.38,1.88629722595215
,0,0.15,0.05,-0.52,0.84,-0.16,3.14,-0.59,-1.42,2.84,11.47,0,0,0,-2.35,1.92,9.32,1.90380454063416
,0,0.17,0.08,-0.52,0.84,-0.12,4.07,-0.67,-1.91,2.94,14.41,0,0,0,-3.05,1.86,9.12,1.91999268531799
,0,0.19,0.13,-0.51,0.83,-0.22,4.83,-0.86,2.2,5.4,16.58,0,0,0,-3.99,1.73,8.78,1.93726110458374
,0,0.2,0.16,-0.51,0.82,-0.69,6.58,-1.2,-0.1,3.38,11.15,0,0,0,-4.56,1.62,8.52,1.95531749725342
,0,0.24,0.22,-0.5,0.8,-0.15,8.5,-0.69,-3.73,3.5,10.3,0,0,0,-5.85,1.51,7.72,1.97027111053467
,0,0.27,0.29,-0.49,0.78,0.03,8.93,-0.85,-3.37,4.71,15.13,0,0,0,-7.05,1.37,6.66,1.98734068870544
,0,0.28,0.32,-0.48,0.76,-0.65,6.27,-1.69,-17.2,6.9,33.6,0,0,0,-7.47,1.21,6.23,2.00492906570435
,0,0.28,0.33,-0.49,0.76,-0.1,-0.45,-0.89,3.73,5.6,15.96,0,0,0,-7.6,1.02,6.1,2.02042531967163
,0,0.27,0.32,-0.5,0.76,-0.27,-1.31,-0.74,4.28,4.86,8.36,0,0,0,-7.43,0.88,6.33,2.03710889816284
,0,0.26,0.32,-0.5,0.76,-0.44,-1.94,-0.55,3.55,5.16,7.03,0,0,0,-7.32,0.81,6.47,2.05499029159546
,0,0.25,0.3,-0.51,0.77,-0.2,-2.24,-0.16,2.35,6.05,7.18,0,0,0,-7.04,0.74,6.77,2.07038950920105
,0,0.24,0.28,-0.51,0.78,-0.07,-2.45,0.11,2,5.96,7.34,0,0,0,-6.7,0.77,7.11,2.08668971061707
,0,0.23,0.27,-0.51,0.78,0.2,-2.89,0.68,0.8,5.27,8.76,0,0,0,-6.49,0.83,7.3,2.10462045669556
,0,0.22,0.24,-0.51,0.79,0.48,-3.41,1.1,-0.99,2.89,9.16,0,0,0,-6,1.01,7.69,2.12057423591614
,0,0.21,0.21,-0.51,0.81,0.61,-3.64,1.18,-1.6,2.19,9.09,0,0,0,-5.4,1.24,8.08,2.137779712677
,0,0.21,0.19,-0.51,0.81,0.79,-3.95,1.12,-2.76,0.95,8.71,0,0,0,-5.07,1.36,8.27,2.15498685836792
,0,0.19,0.15,-0.51,0.82,0.78,-4,0.82,-3.59,0.79,10.32,0,0,0,-4.39,1.58,8.62,2.17121720314026
,0,0.18,0.11,-0.52,0.83,0.81,-4.01,0.66,-4.57,1.54,12.07,0,0,0,-3.69,1.77,8.9,2.18822312355042
,0,0.17,0.09,-0.52,0.83,1.01,-4.09,0.47,-5.2,3.18,12.87,0,0,0,-3.33,1.87,9.03,2.20587754249573
,0,0.16,0.06,-0.52,0.83,1.05,-4.14,0.63,-5.39,4.35,12.31,0,0,0,-2.57,2.09,9.22,2.22253227233887
,0,0.15,0.02,-0.52,0.84,1.02,-4.07,0.79,-6.3,4.71,12.79,0,0,0,-1.81,2.31,9.35,2.2387113571167
,0,0.15,-0,-0.52,0.84,1.01,-3.84,1.14,-6.62,4.77,12.81,0,0,0,-1.44,2.42,9.39,2.25644779205322
,0,0.13,-0.04,-0.51,0.85,0.92,-3.6,1.43,-7.9,4.21,13.31,0,0,0,-0.7,2.62,9.42,2.27274656295776
,0,0.12,-0.07,-0.51,0.85,0.93,-3.49,1.52,-8.69,3.77,12.57,0,0,0,0,2.8,9.39,2.28925609588623
,0,0.12,-0.09,-0.5,0.85,1,-3.23,1.65,-9.07,2.77,12.31,0,0,0,0.33,2.89,9.36,2.30677700042725
,0,0.11,-0.12,-0.49,0.86,1.04,-2.92,1.6,-9.66,1.07,11.69,0,0,0,0.97,3.06,9.26,2.32303023338318
,0,0.11,-0.15,-0.48,0.86,1.09,-2.73,1.49,-11.12,-0.86,8.34,0,0,0,1.52,3.22,9.13,2.3388078212738
,0,0.11,-0.16,-0.47,0.86,1.14,-2.21,1.14,-11.97,-1.93,7.37,0,0,0,1.75,3.31,9.06,2.35620260238647
,0,0.11,-0.18,-0.47,0.86,0.9,-1.43,0.69,-13.31,-3,5.6,0,0,0,2.09,3.44,8.93,2.37277960777283
,0,0.11,-0.19,-0.46,0.86,0.75,-0.98,0.45,-15.05,-3.72,7.86,0,0,0,2.24,3.54,8.86,2.38953852653503
,0,0.11,-0.19,-0.46,0.86,0.51,-0.25,0.01,-15,-3.1,7.03,0,0,0,2.27,3.59,8.83,2.40608811378479
,0,0.11,-0.19,-0.47,0.86,-0.07,0.33,-0.19,-14.19,-0.91,3.76,0,0,0,2.23,3.61,8.83,2.42245578765869
,0,0.11,-0.18,-0.47,0.86,-0.59,0.77,-0.17,0.24,1.14,5.64,0,0,0,2.06,3.46,8.94,2.43908929824829
,0,0.1,-0.17,-0.47,0.86,-1.24,1.11,-0.08,6.72,2.7,-1.59,0,0,0,1.96,3.35,9,2.45650553703308
,0,0.1,-0.15,-0.47,0.86,-1.37,2.06,-0.29,0.79,-2.96,9.09,0,0,0,1.67,3.12,9.14,2.47196578979492
,0,0.1,-0.13,-0.47,0.87,-1.26,2.73,-0.32,-0.96,-4.09,17.51,0,0,0,1.17,2.95,9.27,2.48900556564331
,0,0.11,-0.12,-0.47,0.87,-0.45,2.17,-0.64,-1.91,1.35,14.32,0,0,0,0.96,2.91,9.31,2.50636386871338
,0,0.12,-0.1,-0.48,0.86,0.14,1.68,-0.56,-0.46,5.01,12.88,0,0,0,0.6,2.93,9.33,2.52203869819641
,0,0.13,-0.09,-0.48,0.86,0.17,1.54,-0.45,-1.2,4.17,12.91,0,0,0,0.31,2.96,9.34,2.53875017166138
,0,0.13,-0.08,-0.48,0.86,0.09,1.26,-0.25,-0.04,4.83,13.96,0,0,0,0.19,2.97,9.34,2.55641150474548
,0,0.13,-0.07,-0.48,0.86,-0.2,0.84,-0,0.6,3.97,9.36,0,0,0,0,2.94,9.35,2.57188439369202
,0,0.13,-0.07,-0.48,0.87,-0.33,0.51,0.02,-0.42,2.8,10.48,0,0,0,-0.08,2.87,9.37,2.58877754211426
,0,0.13,-0.07,-0.48,0.87,-0.34,0.35,-0.02,-0.7,2.81,10.85,0,0,0,-0.11,2.84,9.38,2.60607099533081
,0,0.13,-0.06,-0.48,0.87,-0.2,0.17,-0.03,-0.5,2.78,10.53,0,0,0,-0.15,2.8,9.39,2.62195110321045
,0,0.13,-0.06,-0.48,0.87,-0.17,0.14,-0.04,0.07,2.67,10.19,0,0,0,-0.17,2.77,9.4,2.63867211341858
,0,0.13,-0.06,-0.48,0.87,-0.1,0.05,-0.03,-0.1,2.26,9.83,0,0,0,-0.17,2.76,9.4,2.65596604347229
,0,0.13,-0.06,-0.48,0.87,-0.04,0.05,-0.01,0.16,2.59,9.25,0,0,0,-0.18,2.75,9.4,2.67174196243286
,0,0.13,-0.06,-0.48,0.87,-0.05,0.17,-0.01,-0.48,2.54,9.48,0,0,0,-0.21,2.74,9.41,2.68889665603638
,0,0.13,-0.06,-0.48,0.87,-0.08,0.18,-0.03,-1.13,2.44,10.18,0,0,0,-0.23,2.74,9.41,2.70616841316223
,0,0.13,-0.06,-0.48,0.87,-0.03,0.11,-0.03,-1.01,2.42,9.6,0,0,0,-0.26,2.73,9.41,2.72157502174377
,0,0.13,-0.06,-0.48,0.87,0.01,-0.02,-0.03,-0.68,2.71,9.9,0,0,0,-0.25,2.73,9.41,2.73897624015808
,0,0.13,-0.06,-0.48,0.87,0.02,0.03,-0.05,-0.38,2.65,9.57,0,0,0,-0.26,2.73,9.41,2.75607848167419
,0,0.13,-0.06,-0.48,0.87,0,0.1,-0.04,-0.4,2.4,9.75,0,0,0,-0.28,2.73,9.41,2.77126145362854
,0,0.13,-0.05,-0.48,0.87,0.01,0.12,-0.04,-0.45,2.64,9.99,0,0,0,-0.29,2.73,9.41,2.7888810634613
,0,0.13,-0.05,-0.48,0.87,0.03,0.1,-0.03,-0.15,2.82,9.74,0,0,0,-0.31,2.73,9.41,2.80609965324402
,0,0.13,-0.05,-0.48,0.87,0.02,0.09,-0.03,-0.15,2.83,9.46,0,0,0,-0.33,2.73,9.41,2.82167935371399
,0,0.13,-0.05,-0.48,0.87,0,0.09,-0.03,-0.34,2.83,9.66,0,0,0,-0.35,2.73,9.41,2.83895826339722
,0,0.13,-0.05,-0.48,0.87,-0.02,0.07,-0.03,-0.26,2.68,9.42,0,0,0,-0.35,2.73,9.41,2.85596585273743
,0,0.13,-0.05,-0.48,0.87,-0.04,0.02,-0.03,-0.41,2.68,9.45,0,0,0,-0.36,2.72,9.41,2.87190628051758
,0,0.13,-0.05,-0.48,0.87,-0.06,0.01,-0.03,-0.38,2.71,9.37,0,0,0,-0.36,2.71,9.41,2.88960814476013
,0,0.13,-0.05,-0.48,0.87,-0.11,-0.02,-0.03,-0.55,2.63,9.58,0,0,0,-0.36,2.7,9.41,2.90655064582825
,0,0.13,-0.05,-0.48,0.87,-0.13,-0,-0.06,-0.57,2.6,9.53,0,0,0,-0.37,2.67,9.42,2.92150235176086
,0,0.13,-0.05,-0.48,0.87,-0.14,-0.02,-0.06,-0.82,2.58,9.7,0,0,0,-0.37,2.66,9.42,2.93942165374756
,0,0.13,-0.05,-0.48,0.87,-0.15,-0.03,-0.07,-0.45,2.57,9.47,0,0,0,-0.37,2.63,9.43,2.95671057701111
,0,0.13,-0.05,-0.48,0.87,-0.14,-0.01,-0.08,-0.41,2.45,9.65,0,0,0,-0.37,2.61,9.44,2.97175645828247
,0,0.13,-0.05,-0.48,0.86,-0.14,-0.02,-0.08,0.01,2.59,9.72,0,0,0,-0.37,2.59,9.44,2.98937964439392
,0,0.12,-0.05,-0.48,0.86,-0.13,-0.01,-0.08,-0.6,2.44,9.78,0,0,0,-0.37,2.57,9.45,3.00666093826294
,0,0.12,-0.05,-0.48,0.86,-0.11,0,-0.07,-0.5,2.34,9.75,0,0,0,-0.37,2.55,9.46,3.02171397209167
,0,0.12,-0.05,-0.49,0.86,-0.1,-0.01,-0.07,-0.4,2.36,9.77,0,0,0,-0.37,2.54,9.46,3.0394549369812
,0,0.12,-0.05,-0.49,0.86,-0.07,0.02,-0.06,-0.67,2.22,9.77,0,0,0,-0.38,2.52,9.46,3.05657649040222
,0,0.12,-0.05,-0.49,0.86,-0.06,0.05,-0.07,-0.36,2.36,9.73,0,0,0,-0.39,2.5,9.47,3.07142353057861
,0,0.12,-0.04,-0.49,0.86,-0.05,0.05,-0.09,-0.25,2.34,9.59,0,0,0,-0.4,2.5,9.47,3.0886869430542
,0,0.12,-0.04,-0.49,0.86,-0.05,0.1,-0.09,-0.3,2.39,9.63,0,0,0,-0.42,2.49,9.47,3.10616588592529
,0,0.12,-0.04,-0.49,0.86,-0.06,0.13,-0.1,-0.47,2.41,9.73,0,0,0,-0.45,2.47,9.47,3.12153840065002
,0,0.12,-0.04,-0.49,0.86,-0.06,0.15,-0.12,-0.42,2.35,9.61,0,0,0,-0.47,2.47,9.47,3.13928270339966
,0,0.12,-0.04,-0.49,0.86,-0.06,0.15,-0.15,-1.09,2.29,9.81,0,0,0,-0.5,2.45,9.48,3.15617561340332
,0,0.12,-0.04,-0.49,0.86,-0.07,0.17,-0.17,-0.46,1.94,9.6,0,0,0,-0.54,2.44,9.48,3.17127108573914
,0,0.12,-0.04,-0.49,0.86,-0.07,0.13,-0.17,-0.52,2.06,9.76,0,0,0,-0.56,2.43,9.48,3.18979692459106
,0,0.12,-0.04,-0.49,0.86,-0.14,0.09,-0.28,-1.26,1.66,10.48,0,0,0,-0.59,2.41,9.48,3.20696234703064
,0,0.12,-0.03,-0.5,0.86,-0.18,0.06,-0.34,0.36,3.02,9.28,0,0,0,-0.6,2.36,9.49,3.222327709198
,0,0.12,-0.03,-0.5,0.86,-0.3,0.08,-0.4,-0.09,3.01,9.59,0,0,0,-0.62,2.33,9.5,3.23978400230408
,0,0.12,-0.03,-0.5,0.86,-0.36,0.14,-0.46,0.04,2.26,9.91,0,0,0,-0.66,2.26,9.51,3.25727581977844
,0,0.12,-0.03,-0.51,0.85,-0.39,0.13,-0.48,-0.97,2.07,10.45,0,0,0,-0.72,2.18,9.53,3.27238178253174
,0,0.12,-0.02,-0.51,0.85,-0.4,0.54,-0.61,-0.09,2.42,10.05,0,0,0,-0.78,2.14,9.53,3.29044675827026
,0,0.12,-0.01,-0.51,0.85,-0.32,0.84,-0.61,-0.66,2.04,9.82,0,0,0,-0.94,2.06,9.53,3.30680918693542
,0,0.12,-0,-0.52,0.85,-0.11,0.86,-0.48,-1.07,2.24,9.93,0,0,0,-1.12,2.03,9.52,3.32217621803284
,0,0.12,0.01,-0.52,0.85,0,1.11,-0.35,0.08,2.09,9.7,0,0,0,-1.23,2.02,9.51,3.34051299095154
,0,0.13,0.01,-0.52,0.85,-0.09,1.46,-0.37,1.51,1.81,9.43,0,0,0,-1.49,2,9.48,3.35713362693787
,0,0.14,0.03,-0.52,0.84,-0.22,2.26,-0.35,3.26,3.02,9.96,0,0,0,-1.88,1.96,9.42,3.3725414276123
,0,0.15,0.06,-0.52,0.84,-0.19,3.03,-0.36,-1.02,3.27,12.06,0,0,0,-2.16,1.93,9.36,3.39104890823364
,0,0.16,0.08,-0.52,0.84,-0.17,3.98,-0.57,-1.66,3.32,14.55,0,0,0,-2.86,1.88,9.18,3.40781664848328
,0,0.18,0.12,-0.51,0.83,-0.75,5.27,-1.05,0.75,4.47,11.04,0,0,0,-3.75,1.72,8.89,3.42280006408691
,0,0.21,0.18,-0.51,0.82,-0.76,6.29,-0.93,-1.43,4.22,11.31,0,0,0,-4.3,1.62,8.65,3.44174885749817
,0,0.22,0.21,-0.5,0.81,-0.57,7.76,-0.71,-1.95,4.3,11.03,0,0,0,-5.53,1.49,7.95,3.45783948898315
,0,0.25,0.27,-0.49,0.79,-0.88,6.92,-1.41,-16.29,2.26,33.23,0,0,0,-6.63,1.21,7.11,3.47332119941711
,0,0.26,0.3,-0.5,0.77,-0.61,4.58,-1.74,-1.13,6.4,23.15,0,0,0,-6.96,1.05,6.82,3.49177598953247
,0,0.25,0.3,-0.5,0.77,-0.02,-0.4,-1.16,4.57,7.93,10.59,0,0,0,-7.01,0.89,6.79,3.50861692428589
,0,0.24,0.29,-0.51,0.77,-0.56,-1.43,-0.67,4.27,6.21,6.66,0,0,0,-6.85,0.71,6.97,3.52384877204895
,0,0.23,0.28,-0.51,0.78,-0.38,-1.57,-0.43,4.2,6.33,5.91,0,0,0,-6.74,0.66,7.08,3.54172277450562
,0,0.23,0.28,-0.52,0.78,0.14,-1.69,0.1,2.64,6.82,6.22,0,0,0,-6.51,0.66,7.29,3.55812644958496
,0,0.22,0.26,-0.52,0.79,0.43,-1.94,0.72,1.06,5.03,8.15,0,0,0,-6.24,0.78,7.52,3.57254672050476
,0,0.22,0.24,-0.51,0.79,0.58,-2.13,0.99,0.42,4.26,8.92,0,0,0,-6.07,0.88,7.64,3.59209322929382
,0,0.22,0.22,-0.51,0.8,0.89,-2.61,1.31,-0.65,2.92,9.23,0,0,0,-5.68,1.15,7.91,3.60830950737
,0,0.21,0.19,-0.51,0.81,1.05,-3.01,1.32,-1.95,1.4,9.35,0,0,0,-5.19,1.45,8.19,3.6234142780304
,0,0.21,0.16,-0.51,0.82,1.08,-3.14,1.23,-2.15,1.39,9.62,0,0,0,-4.92,1.6,8.33,3.64173269271851
,0,0.2,0.14,-0.51,0.82,1.08,-3.31,1,-3.2,1.73,11.46,0,0,0,-4.34,1.87,8.58,3.65849089622498
,0,0.2,0.11,-0.51,0.83,1.08,-3.38,0.9,-3.65,2.22,12.03,0,0,0,-3.73,2.12,8.81,3.67358684539795
,0,0.19,0.07,-0.51,0.83,1.14,-3.54,0.79,-3.7,2.47,12.01,0,0,0,-3.41,2.25,8.91,3.69290494918823
,0,0.19,0.05,-0.51,0.84,1.15,-3.62,0.79,-3.94,2.32,12.36,0,0,0,-2.75,2.49,9.07,3.70853567123413
,0,0.18,0.02,-0.51,0.84,1.14,-3.64,0.78,-4.44,3.39,12.15,0,0,0,-2.07,2.73,9.18,3.72370982170105
,0,0.17,-0.02,-0.51,0.84,1.06,-3.62,0.79,-4.95,4.33,11.85,0,0,0,-1.72,2.84,9.22,3.74350786209106
,0,0.16,-0.03,-0.51,0.84,0.82,-3.44,0.91,-5.8,4.29,12.26,0,0,0,-1.05,3.02,9.26,3.75894665718079
,0,0.15,-0.07,-0.51,0.85,0.83,-3.23,1.08,-6.64,4.16,11.13,0,0,0,-0.4,3.18,9.26,3.77404975891113
,0,0.14,-0.1,-0.5,0.85,0.83,-3.07,1.17,-6.85,3.86,10.88,0,0,0,-0.08,3.26,9.24,3.79315686225891
,0,0.14,-0.11,-0.5,0.85,0.72,-2.61,1.31,-7.48,3.08,12.19,0,0,0,0.48,3.39,9.18,3.80906772613525
,0,0.13,-0.13,-0.49,0.85,0.69,-2.27,1.34,-9.64,1.68,13.43,0,0,0,0.98,3.49,9.1,3.82435774803162
,0,0.13,-0.16,-0.48,0.85,0.8,-2.22,1.33,-10.44,1.29,11.9,0,0,0,1.22,3.55,9.05,3.84412384033203
,0,0.12,-0.17,-0.47,0.85,0.82,-1.89,1.19,-12.1,-2.21,7.4,0,0,0,1.66,3.66,8.94,3.85893177986145
,0,0.12,-0.19,-0.47,0.86,0.93,-1.24,0.8,-13.35,-2.97,7.89,0,0,0,1.97,3.78,8.82,3.87438321113586
,0,0.13,-0.2,-0.46,0.85,0.9,-0.99,0.55,-13.4,-3.63,6.43,0,0,0,2.07,3.85,8.77,3.89406681060791
,0,0.13,-0.2,-0.46,0.85,0.49,-0.46,0.08,-13.56,-3.87,4.93,0,0,0,2.19,3.94,8.7,3.90920567512512
,0,0.13,-0.2,-0.46,0.85,-0.32,0.29,-0.27,-13.22,0.33,5.45,0,0,0,2.16,3.93,8.71,3.92377853393555
,0,0.12,-0.19,-0.47,0.86,-0.83,0.62,-0.33,4.52,1.23,8.27,0,0,0,2.09,3.87,8.76,3.94436049461365
,0,0.12,-0.18,-0.47,0.86,-1.73,0.91,-0.34,6.81,7.21,7.14,0,0,0,1.91,3.59,8.91,3.95937132835388
,0,0.11,-0.16,-0.48,0.86,-1.61,1.68,-0.46,0.79,-1.04,10.64,0,0,0,1.66,3.32,9.07,3.97468757629395
,0,0.11,-0.13,-0.48,0.86,-1.44,2.46,-0.4,-0.27,-2.24,17.2,0,0,0,1.43,3.2,9.15,3.99432873725891
,0,0.11,-0.12,-0.48,0.86,-0.66,2.16,-0.58,-1.31,2.1,14.09,0,0,0,0.98,3.06,9.26,4.00955486297607
,0,0.12,-0.11,-0.48,0.86,-0.16,1.61,-0.49,-0.47,5.19,12.68,0,0,0,0.64,3.02,9.3,4.02534890174866
,0,0.13,-0.09,-0.48,0.86,-0.14,1.49,-0.37,-0.22,5.16,12.65,0,0,0,0.37,2.99,9.33,4.04503297805786
,0,0.13,-0.09,-0.48,0.86,-0.25,1.23,-0.19,0.59,3.91,13.85,0,0,0,0.25,2.97,9.34,4.05997729301453
,0,0.13,-0.07,-0.48,0.86,-0.49,1.15,-0.04,-1.35,4.66,10.42,0,0,0,0.03,2.89,9.36,4.07507753372192
,0,0.13,-0.07,-0.48,0.86,-0.6,0.76,-0.08,-1.01,2.47,11.17,0,0,0,-0.09,2.78,9.4,4.09528088569641
,0,0.13,-0.06,-0.48,0.86,-0.47,0.41,-0.09,-0.6,2.56,10.82,0,0,0,-0.13,2.74,9.41,4.11099576950073
,0,0.13,-0.06,-0.48,0.86,-0.31,0.19,-0.09,-0.31,2.46,10.37,0,0,0,-0.18,2.68,9.43,4.12743449211121
,0,0.12,-0.06,-0.49,0.86,-0.3,0.13,-0.07,0,2.25,9.99,0,0,0,-0.2,2.63,9.44,4.14631962776184
,0,0.12,-0.06,-0.49,0.86,-0.17,0.06,-0.08,0.04,2.38,9.98,0,0,0,-0.21,2.62,9.44,4.16211080551147
,0,0.12,-0.06,-0.49,0.86,-0.08,0.08,-0.03,-0.71,2.27,9.92,0,0,0,-0.22,2.6,9.45,4.17961430549622
,0,0.12,-0.05,-0.49,0.86,-0.06,0.25,-0.04,-0.57,2.57,9.84,0,0,0,-0.26,2.59,9.45,4.19742488861084
,0,0.12,-0.05,-0.49,0.86,-0.05,0.15,-0.04,-1.66,2.5,9.93,0,0,0,-0.3,2.58,9.45,4.21543169021606
,0,0.12,-0.05,-0.49,0.86,-0.05,0.01,-0.02,-0.71,2.47,9.73,0,0,0,-0.3,2.57,9.45,4.23254609107971
,0,0.12,-0.05,-0.49,0.86,-0.07,-0.01,-0.02,-0.5,2.68,9.73,0,0,0,-0.29,2.56,9.46,4.24928760528564
,0,0.12,-0.05,-0.49,0.86,-0.09,0.03,-0.04,-0.92,2.7,10,0,0,0,-0.3,2.54,9.46,4.26684021949768
,0,0.12,-0.05,-0.49,0.86,-0.11,0.05,-0.07,-0.5,2.23,9.81,0,0,0,-0.32,2.52,9.47,4.2837963104248
,0,0.12,-0.05,-0.49,0.86,-0.11,0.07,-0.07,0.03,2.32,9.63,0,0,0,-0.33,2.51,9.47,4.2989330291748
,0,0.12,-0.05,-0.49,0.86,-0.1,0.06,-0.06,-0.03,2.47,9.45,0,0,0,-0.34,2.49,9.47,4.31746077537537
,0,0.12,-0.05,-0.49,0.86,-0.09,0.08,-0.07,-0.17,2.29,9.57,0,0,0,-0.36,2.48,9.48,4.33388686180115
,0,0.12,-0.05,-0.49,0.86,-0.09,0.1,-0.08,-0.48,2.23,9.4,0,0,0,-0.37,2.47,9.48,4.34968209266663
,0,0.12,-0.04,-0.49,0.86,-0.08,0.11,-0.07,-0.7,2.14,9.62,0,0,0,-0.39,2.45,9.48,4.36757516860962
,0,0.12,-0.04,-0.49,0.86,-0.07,0.1,-0.06,-0.4,2.12,9.6,0,0,0,-0.41,2.44,9.48,4.3835244178772
,0,0.12,-0.04,-0.49,0.86,-0.04,0.11,-0.05,-0.58,2.13,9.6,0,0,0,-0.43,2.44,9.48,4.39919114112854
,0,0.12,-0.04,-0.49,0.86,-0.03,0.08,-0.07,-0.47,2.19,9.52,0,0,0,-0.45,2.43,9.48,4.41768622398376
,0,0.12,-0.04,-0.49,0.86,-0.03,0.09,-0.07,-0.98,2.32,9.91,0,0,0,-0.47,2.42,9.49,4.43396925926208
,0,0.12,-0.04,-0.49,0.86,-0.03,0.08,-0.08,-0.47,2.41,9.77,0,0,0,-0.48,2.41,9.49,4.44955921173096
,0,0.12,-0.04,-0.49,0.86,-0.02,0.06,-0.09,-0.34,2.27,9.63,0,0,0,-0.49,2.41,9.49,4.46771097183228
,0,0.12,-0.04,-0.49,0.86,-0.01,0.05,-0.1,-0.35,2.25,9.67,0,0,0,-0.51,2.4,9.49,4.48413777351379
,0,0.12,-0.04,-0.49,0.86,-0.01,0.05,-0.09,-0.38,2.33,9.8,0,0,0,-0.51,2.4,9.49,4.49959969520569
,0,0.12,-0.04,-0.49,0.86,-0.07,0.06,-0.15,-1.21,2.64,9.74,0,0,0,-0.53,2.39,9.49,4.51800274848938
,0,0.12,-0.04,-0.5,0.86,-0.03,0.06,-0.08,-0.74,2.16,9.7,0,0,0,-0.55,2.38,9.49,4.53383755683899
,0,0.12,-0.04,-0.5,0.86,-0.02,0.05,-0.09,-0.67,2.09,9.62,0,0,0,-0.56,2.38,9.49,4.54972267150879
,0,0.12,-0.04,-0.5,0.86,0,0.07,-0.09,-0.39,2.16,9.57,0,0,0,-0.57,2.38,9.49,4.56770014762878
,0,0.12,-0.03,-0.5,0.86,-0.01,0.09,-0.08,-0.8,2.1,9.73,0,0,0,-0.59,2.37,9.49,4.58450484275818
,0,0.12,-0.03,-0.5,0.86,-0.01,0.09,-0.08,-0.72,2.23,9.7,0,0,0,-0.6,2.37,9.49,4.5997302532196
,0,0.12,-0.03,-0.5,0.86,0,0.08,-0.08,-0.71,2.17,9.72,0,0,0,-0.62,2.36,9.49,4.61714792251587
,0,0.12,-0.03,-0.5,0.86,0.01,0.07,-0.09,-0.44,2.18,9.76,0,0,0,-0.64,2.36,9.49,4.63388204574585
,0,0.12,-0.03,-0.5,0.86,-0,0.1,-0.1,-0.91,2.26,9.95,0,0,0,-0.65,2.36,9.49,4.64942455291748
,0,0.12,-0.03,-0.5,0.86,-0.02,0.1,-0.11,-0.74,2.21,9.48,0,0,0,-0.67,2.35,9.49,4.66676807403564
,0,0.12,-0.03,-0.5,0.86,-0.14,0.1,-0.25,-1.05,1.52,9.33,0,0,0,-0.7,2.32,9.5,4.68400955200195
,0,0.12,-0.03,-0.5,0.86,-0.24,0.03,-0.27,0,3.28,9.5,0,0,0,-0.71,2.29,9.5,4.69964623451233
,0,0.12,-0.03,-0.51,0.85,-0.29,0.01,-0.32,-0.88,2.75,8.31,0,0,0,-0.73,2.23,9.51,4.71799445152283
,0,0.12,-0.02,-0.51,0.85,-0.36,0.04,-0.38,-0.51,2.55,10.04,0,0,0,-0.75,2.16,9.53,4.7346875667572
,0,0.11,-0.02,-0.51,0.85,-0.39,0.11,-0.32,-0.67,2.42,9.83,0,0,0,-0.77,2.12,9.54,4.75022006034851
,0,0.11,-0.02,-0.51,0.85,-0.44,0.15,-0.45,-0.72,2.13,10.55,0,0,0,-0.82,2.04,9.55,4.76842164993286
,0,0.11,-0.01,-0.52,0.85,-0.37,0.64,-0.61,-1.31,2.52,10.54,0,0,0,-0.97,1.97,9.55,4.78480410575867
,0,0.11,-0.01,-0.52,0.85,-0.16,0.93,-0.34,-0.43,2.06,9.61,0,0,0,-1.07,1.95,9.54,4.80004501342773
,0,0.12,0.01,-0.52,0.85,-0.15,1.11,-0.37,-0.61,1.79,9.78,0,0,0,-1.31,1.92,9.52,4.81808829307556
,0,0.13,0.02,-0.52,0.84,-0.25,1.54,-0.35,0.67,2.13,9.89,0,0,0,-1.63,1.85,9.48,4.83502173423767
,0,0.13,0.03,-0.52,0.84,-0.39,2.35,-0.29,1.06,2.55,9.83,0,0,0,-1.86,1.81,9.45,4.85064768791199
,0,0.14,0.06,-0.52,0.84,-0.36,2.96,-0.33,1.74,3.04,10.76,0,0,0,-2.47,1.72,9.33,4.86811685562134
,0,0.16,0.1,-0.52,0.84,-0.51,4.06,-0.45,-0.87,2.84,12.37,0,0,0,-3.25,1.6,9.11,4.88478493690491
,0,0.17,0.12,-0.52,0.83,-1.18,4.91,-0.89,1.82,5.09,15.07,0,0,0,-3.69,1.46,8.96,4.90012812614441
,0,0.19,0.18,-0.51,0.82,-1.37,5.69,-1.04,0.75,2.92,12.02,0,0,0,-4.76,1.18,8.49,4.91830635070801
,0,0.21,0.24,-0.5,0.8,-0.85,7.21,-0.98,-1.51,4.84,11.33,0,0,0,-5.93,0.92,7.75,4.93551158905029
,0,0.22,0.28,-0.5,0.79,-1.06,7.12,-1.57,-0.55,1.39,17.58,0,0,0,-6.46,0.75,7.33,4.94999003410339
,0,0.24,0.32,-0.5,0.77,-0.88,6.03,-1.91,0.16,-0.61,26.61,0,0,0,-7.09,0.42,6.75,4.96839046478271
,0,0.23,0.32,-0.52,0.76,0.37,0.17,-1.57,1.7,6.24,17.75,0,0,0,-7.05,0.25,6.8,4.98543190956116
,0,0.23,0.31,-0.52,0.76,-0.03,-1.33,-1.19,3.81,6.32,8.51,0,0,0,-6.97,0.17,6.89,5.00099039077759
,0,0.22,0.3,-0.53,0.76,-0.03,-1.44,-0.97,3.63,5.92,5.22,0,0,0,-6.77,0.07,7.08,5.01829504966736
,0,0.21,0.29,-0.54,0.76,0.36,-1.47,-0.36,2.94,6.82,5.8,0,0,0,-6.56,0.11,7.28,5.03525400161743
,0,0.21,0.28,-0.54,0.77,0.67,-1.8,0.44,1.75,6.13,7.51,0,0,0,-6.43,0.18,7.39,5.05063080787659
,0,0.21,0.26,-0.54,0.77,0.8,-2.01,0.82,1.31,5.19,7.71,0,0,0,-6.12,0.42,7.64,5.06852102279663
,0,0.21,0.23,-0.54,0.79,1.01,-2.4,1.28,0.51,3.29,8.13,0,0,0,-5.73,0.73,7.92,5.08567976951599
,0,0.2,0.22,-0.53,0.79,1.14,-2.77,1.36,-0.88,1.26,9.54,0,0,0,-5.5,0.9,8.06,5.1001923084259
,0,0.2,0.18,-0.53,0.8,1.17,-2.96,1.29,-1.35,0.77,9.8,0,0,0,-4.99,1.21,8.34,5.11812424659729
,0,0.19,0.15,-0.53,0.81,1.2,-3.27,1.02,-2.39,0.39,10.68,0,0,0,-4.42,1.49,8.62,5.13576149940491
,0,0.19,0.13,-0.54,0.81,1.22,-3.49,0.74,-3.13,1,11.26,0,0,0,-4.12,1.63,8.74,5.15107750892639
,0,0.18,0.1,-0.54,0.82,1.2,-3.57,0.66,-3.47,1.46,11.5,0,0,0,-3.48,1.88,8.97,5.16839385032654
,0,0.17,0.06,-0.54,0.82,1.17,-3.63,0.65,-3.67,2.48,11.43,0,0,0,-2.82,2.13,9.14,5.18563652038574
,0,0.17,0.04,-0.54,0.82,1.25,-3.56,0.77,-3.69,2.66,11.64,0,0,0,-2.48,2.26,9.21,5.20079779624939
,0,0.16,0.01,-0.54,0.83,1.23,-3.48,0.83,-4.56,3.88,12.05,0,0,0,-1.82,2.5,9.3,5.21932244300842
,0,0.15,-0.03,-0.54,0.83,0.95,-3.43,1.03,-5.2,4.51,13.01,0,0,0,-1.15,2.7,9.35,5.23586392402649
,0,0.14,-0.04,-0.53,0.83,0.87,-3.36,1.26,-7.09,4.99,13.75,0,0,0,-0.81,2.79,9.36,5.25059795379639
,0,0.13,-0.08,-0.52,0.84,0.9,-3.32,1.4,-7.64,4.97,13.14,0,0,0,-0.14,2.97,9.34,5.26868891716003
,0,0.12,-0.11,-0.51,0.84,0.92,-3.04,1.67,-9.17,3.73,10.96,0,0,0,0.17,3.05,9.31,5.28565192222595
,0,0.12,-0.12,-0.51,0.84,0.8,-2.51,1.81,-10.19,1.84,10.38,0,0,0,0.76,3.18,9.24,5.30119442939758
,0,0.11,-0.14,-0.49,0.85,0.77,-2.23,1.8,-10.79,0.86,10.21,0,0,0,1.24,3.29,9.15,5.31863951683044
,0,0.11,-0.16,-0.48,0.85,0.75,-1.66,1.59,-12.67,-0.96,10.57,0,0,0,1.44,3.33,9.1,5.33619475364685
,0,0.11,-0.17,-0.48,0.86,0.65,-1.27,1.25,-13.69,-2.14,8.98,0,0,0,1.77,3.41,9.01,5.35113286972046
,0,0.11,-0.18,-0.47,0.86,0.6,-1.06,1.02,-14.14,-4.24,7.41,0,0,0,1.99,3.49,8.94,5.36917495727539
,0,0.11,-0.18,-0.47,0.86,0.55,-0.43,0.45,-13.72,-3.8,4.22,0,0,0,2.04,3.53,8.91,5.38630318641663
,0,0.11,-0.18,-0.47,0.86,-0.19,0.48,0.03,-12.72,-1.21,4.11,0,0,0,2.01,3.52,8.92,5.40246558189392
,0,0.11,-0.17,-0.47,0.86,-0.76,0.95,0.04,-11.91,1.01,5.3,0,0,0,1.83,3.32,9.04,5.41945171356201
,0,0.1,-0.15,-0.47,0.87,-1.48,1.24,0.35,4.25,5.42,16.45,0,0,0,1.64,3.08,9.16,5.43699383735657
,0,0.1,-0.14,-0.47,0.87,-1.07,1.91,-0.15,3.47,-6.18,1.4,0,0,0,1.47,2.98,9.22,5.45174074172974
,0,0.11,-0.11,-0.47,0.87,-1.03,2.62,-0.41,1.28,-6.52,10.99,0,0,0,0.97,2.85,9.33,5.46997499465942
,0,0.12,-0.1,-0.47,0.87,-0.13,2.18,-0.68,-3.07,2.6,16.39,0,0,0,0.58,2.85,9.36,5.48760533332825
,0,0.12,-0.09,-0.47,0.87,0.14,1.49,-0.42,-0.4,4.29,12.26,0,0,0,0.44,2.87,9.36,5.50356388092041
,0,0.13,-0.08,-0.47,0.87,0.04,1.43,-0.32,-1.2,4.98,14.11,0,0,0,0.18,2.87,9.37,5.51982736587524
,0,0.13,-0.07,-0.47,0.87,-0.1,1.03,-0.06,-2.47,4.62,15.07,0,0,0,0.03,2.85,9.38,5.53700065612793
,0,0.13,-0.07,-0.47,0.87,-0.29,0.58,0.01,0.72,3.36,9.27,0,0,0,-0.02,2.82,9.39,5.5527458190918
,0,0.13,-0.06,-0.47,0.87,-0.29,0.49,-0.02,-0.78,2.81,10.27,0,0,0,-0.1,2.77,9.4,5.56986546516418
,0,0.13,-0.06,-0.47,0.87,-0.28,0.28,-0.03,-0.6,2.86,10.16,0,0,0,-0.14,2.72,9.41,5.58730435371399
,0,0.13,-0.06,-0.47,0.87,-0.22,0.14,-0.04,-0.15,2.71,9.68,0,0,0,-0.15,2.7,9.42,5.60228204727173
,0,0.12,-0.06,-0.47,0.87,-0.25,0.12,-0.05,-0.53,2.33,9.98,0,0,0,-0.17,2.66,9.43,5.61957406997681
,0,0.12,-0.06,-0.47,0.87,-0.22,0.06,-0.05,-0.19,2.32,9.95,0,0,0,-0.18,2.64,9.44,5.6368362903595
,0,0.12,-0.05,-0.47,0.87,-0.19,0.09,-0.05,-0.33,2.23,9.78,0,0,0,-0.2,2.6,9.45,5.65237212181091
,0,0.12,-0.05,-0.47,0.87,-0.18,0.19,-0.05,0.23,2.32,9.58,0,0,0,-0.24,2.57,9.45,5.66977310180664
,0,0.12,-0.05,-0.47,0.87,-0.18,0.22,-0.15,-0.74,2.83,9.81,0,0,0,-0.27,2.55,9.46,5.68702483177185
,0,0.12,-0.05,-0.48,0.87,-0.15,0.2,-0.06,-0.46,2.32,10.05,0,0,0,-0.31,2.52,9.47,5.70235705375671
,0,0.12,-0.05,-0.48,0.87,-0.12,0.06,-0.04,-0.82,2.3,10.14,0,0,0,-0.32,2.5,9.47,5.7199718952179
,0,0.12,-0.05,-0.48,0.87,-0.08,0.01,-0.05,-0.59,2.61,10.18,0,0,0,-0.32,2.49,9.47,5.73746585845947
,0,0.12,-0.05,-0.48,0.87,-0.08,0.06,-0.05,-0.62,2.09,9.79,0,0,0,-0.34,2.47,9.48,5.75171113014221
,0,0.12,-0.04,-0.48,0.87,-0.09,0.05,-0.05,-0.4,2.2,10.15,0,0,0,-0.34,2.47,9.48,5.76928496360779
,0,0.12,-0.04,-0.48,0.87,-0.07,0.07,-0.04,-0.56,2.26,9.87,0,0,0,-0.36,2.45,9.48,5.78721857070923
,0,0.12,-0.04,-0.48,0.87,-0.04,0.07,-0.06,-0.41,2.25,9.61,0,0,0,-0.37,2.44,9.48,5.80231928825378
,0,0.12,-0.04,-0.48,0.87,-0.04,0.07,-0.07,0,2.41,9.44,0,0,0,-0.38,2.44,9.48,5.81968426704407
,0,0.12,-0.04,-0.48,0.87,-0.07,0.09,-0.09,-0.21,2.26,9.38,0,0,0,-0.4,2.43,9.49,5.83785629272461
,0,0.12,-0.04,-0.48,0.87,-0.06,0.09,-0.09,-0.39,2.27,9.62,0,0,0,-0.43,2.41,9.49,5.85374307632446
,0,0.12,-0.04,-0.48,0.87,-0.06,0.1,-0.11,-0.59,2.2,9.71,0,0,0,-0.45,2.4,9.49,5.87029695510864
,0,0.12,-0.04,-0.48,0.87,-0.07,0.12,-0.12,-0.67,2.22,9.66,0,0,0,-0.46,2.39,9.49,5.88770294189453
,0,0.12,-0.04,-0.48,0.87,-0.06,0.1,-0.12,-0.38,2.24,9.7,0,0,0,-0.49,2.38,9.5,5.90379047393799
,0,0.12,-0.04,-0.48,0.87,-0.06,0.1,-0.13,-0.78,2.42,9.8,0,0,0,-0.51,2.36,9.5,5.92049098014832
,0,0.12,-0.03,-0.48,0.87,-0.04,0.09,-0.11,-1.13,2.18,9.96,0,0,0,-0.52,2.36,9.5,5.93822622299194
,0,0.12,-0.03,-0.48,0.87,-0.03,0.07,-0.11,-0.64,2.12,9.66,0,0,0,-0.54,2.35,9.5,5.9537148475647
,0,0.12,-0.03,-0.48,0.87,-0.03,0.09,-0.12,-1.01,2.14,9.78,0,0,0,-0.56,2.35,9.5,5.97062277793884
,0,0.12,-0.03,-0.48,0.87,-0.02,0.08,-0.08,-0.96,2.24,9.81,0,0,0,-0.57,2.34,9.5,5.98841834068298
,0,0.12,-0.03,-0.48,0.87,-0.01,0.06,-0.07,-0.75,2.28,9.84,0,0,0,-0.59,2.34,9.5,6.00465726852417
,0,0.12,-0.03,-0.49,0.87,-0.01,0.07,-0.07,-0.51,2.14,9.67,0,0,0,-0.61,2.34,9.5,6.02070379257202
,0,0.12,-0.03,-0.49,0.87,-0.01,0.08,-0.06,-0.68,2.15,9.76,0,0,0,-0.62,2.34,9.5,6.03770422935486
,0,0.12,-0.03,-0.49,0.86,-0.02,0.09,-0.07,-0.56,2.18,9.85,0,0,0,-0.63,2.33,9.5,6.05404281616211
,0,0.12,-0.03,-0.49,0.86,-0.03,0.09,-0.08,-0.81,2.05,9.8,0,0,0,-0.65,2.33,9.5,6.07129311561584
,0,0.12,-0.03,-0.49,0.86,-0.02,0.06,-0.07,-0.55,1.81,9.68,0,0,0,-0.66,2.32,9.5,6.08849239349365
,0,0.12,-0.03,-0.49,0.86,-0.03,0.08,-0.08,-0.97,2.05,9.82,0,0,0,-0.68,2.32,9.5,6.10454559326172
,0,0.12,-0.03,-0.49,0.86,-0.05,0.09,-0.1,-1.37,2.49,9.84,0,0,0,-0.7,2.31,9.5,6.12099432945251
,0,0.12,-0.03,-0.49,0.86,-0.07,0.07,-0.15,-0.86,1.41,9.18,0,0,0,-0.71,2.3,9.5,6.13903117179871
,0,0.12,-0.02,-0.49,0.86,-0.15,0.07,-0.24,0.38,2.68,9.45,0,0,0,-0.73,2.27,9.51,6.15534281730652
,0,0.12,-0.02,-0.49,0.86,-0.17,0.15,-0.27,-0.24,2.84,10.09,0,0,0,-0.76,2.22,9.51,6.17163729667664
,0,0.12,-0.02,-0.5,0.86,-0.33,0.13,-0.39,-0.34,2.41,10.03,0,0,0,-0.8,2.16,9.53,6.18933010101318
,0,0.12,-0.02,-0.5,0.86,-0.31,0.14,-0.36,-0.37,2.46,9.97,0,0,0,-0.82,2.13,9.53,6.20581483840942
,0,0.11,-0.01,-0.5,0.86,-0.39,0.15,-0.36,-0.35,2.27,10.18,0,0,0,-0.86,2.05,9.54,6.22169470787048
,0,0.11,-0.01,-0.5,0.86,-0.37,0.15,-0.25,-0.06,1.88,9.81,0,0,0,-0.91,1.97,9.56,6.23885917663574
,0,0.11,-0.01,-0.5,0.86,-0.38,0.32,-0.52,0.43,1.98,9.57,0,0,0,-0.95,1.93,9.56,6.25596499443054
,0,0.11,0,-0.51,0.85,-0.23,0.85,-0.42,-0.1,1.48,9.47,0,0,0,-1.15,1.9,9.55,6.27167844772339
,0,0.12,0.01,-0.51,0.85,-0.06,1.35,-0.35,-0.22,1.59,10.08,0,0,0,-1.28,1.89,9.53,6.28971791267395
,0,0.13,0.02,-0.51,0.85,-0.13,2,-0.36,1.77,1.91,9.48,0,0,0,-1.63,1.86,9.48,6.30636143684387
,0,0.14,0.05,-0.51,0.85,-0.12,3.22,-0.54,1.59,2.37,10.56,0,0,0,-2.17,1.82,9.38,6.32210469245911
,0,0.16,0.08,-0.51,0.84,-0.14,3.84,-0.62,-0.69,2.55,12.03,0,0,0,-2.53,1.79,9.3,6.33943200111389
,0,0.17,0.1,-0.51,0.84,-0.14,4.58,-0.75,-0.96,4.11,13.67,0,0,0,-3.35,1.73,9.05,6.35627460479736
,0,0.19,0.15,-0.5,0.83,-0.4,6.23,-0.87,-0.4,4.14,10.94,0,0,0,-4.36,1.58,8.63,6.37173366546631
,0,0.22,0.21,-0.5,0.81,-0.07,7.12,-0.65,-1.84,4.33,11.78,0,0,0,-5.56,1.5,7.93,6.38955307006836
,0,0.24,0.24,-0.49,0.8,0.07,7.02,-1.53,0.98,2.38,24.62,0,0,0,-6.1,1.42,7.53,6.40700244903564
,0,0.25,0.28,-0.5,0.78,0,2.17,-1.85,-1.3,6.15,24.39,0,0,0,-6.71,1.15,7.05,6.42212343215942
,0,0.25,0.28,-0.51,0.77,0.17,0.23,-1.52,1.05,6.49,18.03,0,0,0,-6.74,1.07,7.03,6.43950843811035
,0,0.24,0.28,-0.52,0.77,-0.11,-0.92,-1.21,4.04,6.59,7.1,0,0,0,-6.65,0.89,7.14,6.45710611343384
,0,0.24,0.27,-0.53,0.77,-0.02,-1.08,-0.76,3.58,6.77,6.24,0,0,0,-6.52,0.77,7.27,6.47229528427124
,0,0.23,0.26,-0.53,0.77,0.16,-1.18,-0.43,3.19,7.54,6.79,0,0,0,-6.44,0.75,7.35,6.48963809013367
,0,0.23,0.25,-0.53,0.77,0.4,-1.48,0.36,2.39,6.62,7.36,0,0,0,-6.24,0.82,7.51,6.50674915313721
,0,0.23,0.24,-0.53,0.78,0.63,-1.9,0.94,1.25,3.64,8.07,0,0,0,-5.96,1,7.71,6.52200412750244
,0,0.22,0.21,-0.53,0.79,0.75,-2.12,1.09,0.83,2.83,8.27,0,0,0,-5.79,1.12,7.82,6.5402193069458
,0,0.22,0.2,-0.53,0.8,0.91,-2.53,1.13,0.05,1.67,8.69,0,0,0,-5.39,1.38,8.07,6.5573365688324
,0,0.22,0.17,-0.53,0.8,0.89,-2.94,0.94,-1.33,0.91,9.84,0,0,0,-4.91,1.63,8.32,6.57228231430054
,0,0.21,0.14,-0.53,0.81,0.85,-3.14,0.79,-1.65,0.69,10.14,0,0,0,-4.64,1.73,8.45,6.58982038497925
,0,0.2,0.12,-0.53,0.81,0.94,-3.43,0.51,-2.72,1.68,10.61,0,0,0,-4.06,1.93,8.71,6.60793495178223
,0,0.19,0.09,-0.54,0.82,1.07,-3.59,0.46,-3.19,2.89,10.66,0,0,0,-3.44,2.14,8.92,6.62329745292664
,0,0.18,0.05,-0.54,0.82,1.12,-3.61,0.53,-3.42,3.14,10.75,0,0,0,-2.78,2.38,9.09,6.64084720611572
,0,0.18,0.03,-0.54,0.82,1.25,-3.6,0.74,-3.87,3.32,11.16,0,0,0,-2.44,2.51,9.15,6.65870022773743
,0,0.17,-0,-0.54,0.83,1.19,-3.5,0.97,-5.04,4.71,11.93,0,0,0,-1.77,2.77,9.23,6.67483639717102
,0,0.16,-0.04,-0.53,0.83,1.07,-3.48,1.1,-5.5,4.68,12.58,0,0,0,-1.09,2.98,9.27,6.69178080558777
,0,0.16,-0.05,-0.53,0.83,1.02,-3.37,1.32,-6.51,4.33,13.25,0,0,0,-0.75,3.09,9.27,6.70927810668945
,0,0.15,-0.09,-0.52,0.83,1.08,-3.2,1.51,-7.99,4,11.72,0,0,0,-0.08,3.29,9.23,6.7244086265564
,0,0.14,-0.12,-0.51,0.84,1.05,-2.99,1.6,-8.53,3.63,10.98,0,0,0,0.53,3.46,9.15,6.74166059494019
,0,0.14,-0.13,-0.51,0.84,0.82,-2.37,1.69,-9.89,1.77,10.75,0,0,0,0.8,3.52,9.11,6.75936365127563
,0,0.13,-0.15,-0.5,0.85,0.59,-1.82,1.58,-11.2,0.88,11.66,0,0,0,1.25,3.6,9.03,6.77611446380615
,0,0.12,-0.17,-0.49,0.85,0.41,-1.59,1.47,-12.84,-2.72,8.42,0,0,0,1.6,3.62,8.96,6.79253387451172
,0,0.12,-0.17,-0.48,0.85,0.33,-1.09,1.11,-13.34,-3,7.85,0,0,0,1.74,3.63,8.93,6.80975222587585
,0,0.12,-0.18,-0.48,0.85,0.46,-0.52,0.64,-14.45,-2.34,8.04,0,0,0,1.9,3.68,8.88,6.82622361183167
,0,0.12,-0.18,-0.47,0.85,0.31,-0.28,0.49,-13.95,-2.88,4.65,0,0,0,1.95,3.69,8.86,6.84243035316467
,0,0.12,-0.18,-0.47,0.86,-0.42,0.44,0.28,-13.61,-2.77,3.99,0,0,0,1.93,3.65,8.89,6.8593738079071
,0,0.11,-0.16,-0.47,0.86,-2.2,1.51,0.21,4.65,3.34,17.74,0,0,0,1.72,3.35,9.05,6.87567377090454
,0,0.1,-0.14,-0.47,0.86,-1.65,1.27,0.12,4.04,-2.33,2.49,0,0,0,1.49,3.09,9.18,6.89263606071472
,0,0.1,-0.13,-0.47,0.87,-1.25,2.02,-0.24,3.76,-4.04,3.3,0,0,0,1.3,2.98,9.24,6.91003251075745
,0,0.11,-0.11,-0.47,0.87,-0.69,2.14,-0.5,-2.44,0.83,18.09,0,0,0,0.87,2.83,9.34,6.92612791061401
,0,0.11,-0.09,-0.48,0.87,-0.39,1.72,-0.45,-0.68,3.13,12.25,0,0,0,0.57,2.78,9.38,6.94264483451843
,0,0.11,-0.09,-0.48,0.87,-0.18,1.4,-0.28,0.61,2.79,9.77,0,0,0,0.43,2.76,9.39,6.95994448661804
,0,0.12,-0.07,-0.48,0.87,-0.32,1.48,-0.18,-2.1,3.42,12.29,0,0,0,0.15,2.71,9.42,6.9763240814209
,0,0.12,-0.06,-0.48,0.87,-0.4,1.49,-0.09,-2.55,4.15,11.12,0,0,0,-0.08,2.64,9.44,6.99233436584473
,0,0.12,-0.06,-0.48,0.87,-0.41,0.44,-0.06,0.82,2.79,9.31,0,0,0,-0.12,2.6,9.45,7.00941514968872
,0,0.12,-0.05,-0.48,0.87,-0.24,0.39,-0.09,-0.46,2.94,10.38,0,0,0,-0.21,2.55,9.46,7.02543115615845
,0,0.12,-0.05,-0.48,0.87,-0.22,0.41,-0.11,-1.01,3.04,10.72,0,0,0,-0.27,2.51,9.47,7.04214477539062
,0,0.12,-0.05,-0.48,0.87,-0.22,0.18,-0.15,-0.38,2.14,9.69,0,0,0,-0.29,2.48,9.48,7.05973672866821
,0,0.12,-0.05,-0.48,0.87,-0.13,0.13,-0.11,0.09,2.12,9.83,0,0,0,-0.32,2.46,9.48,7.07554054260254
,0,0.12,-0.04,-0.48,0.87,-0.08,0.12,-0.14,0.27,2.02,9.81,0,0,0,-0.36,2.44,9.48,7.09214901924133
,0,0.12,-0.04,-0.48,0.87,-0.07,0.14,-0.16,-0.67,2.23,10.09,0,0,0,-0.37,2.44,9.49,7.10953688621521
,0,0.12,-0.04,-0.48,0.87,-0.08,0.11,-0.07,-1.08,2.44,9.89,0,0,0,-0.4,2.42,9.49,7.12566733360291
,0,0.12,-0.04,-0.48,0.87,-0.09,0.16,-0.08,0.22,2.39,9.49,0,0,0,-0.44,2.4,9.49,7.14223718643188
,0,0.12,-0.04,-0.48,0.87,-0.1,0.21,-0.13,-1.22,2.3,10.02,0,0,0,-0.46,2.39,9.49,7.15961122512817
,0,0.12,-0.04,-0.48,0.87,-0.06,0.01,-0.07,-1.13,2.19,9.7,0,0,0,-0.48,2.38,9.5,7.17486119270325
,0,0.12,-0.04,-0.49,0.87,-0.05,0.05,-0.08,-1.21,2.34,9.67,0,0,0,-0.5,2.37,9.5,7.19173526763916
,0,0.12,-0.04,-0.49,0.87,-0.05,0.02,-0.09,-0.27,2.09,9.45,0,0,0,-0.5,2.36,9.5,7.20952367782593
,0,0.12,-0.04,-0.49,0.86,-0.06,0.06,-0.1,-0.36,2.2,9.72,0,0,0,-0.52,2.35,9.5,7.22508311271667
,0,0.12,-0.04,-0.49,0.86,-0.05,0.06,-0.09,-0.53,2.37,9.69,0,0,0,-0.53,2.34,9.5,7.24226069450378
,0,0.12,-0.03,-0.49,0.86,-0.03,0.04,-0.08,-0.4,2.18,9.59,0,0,0,-0.54,2.34,9.5,7.25930619239807
,0,0.12,-0.03,-0.49,0.86,-0.01,0.05,-0.08,-0.44,2.31,9.42,0,0,0,-0.55,2.33,9.5,7.27401065826416
,0,0.12,-0.03,-0.49,0.86,-0.02,0.05,-0.09,-0.82,2.21,9.72,0,0,0,-0.56,2.33,9.5,7.29171967506409
,0,0.12,-0.03,-0.49,0.86,-0.02,0.03,-0.06,-0.94,1.98,9.65,0,0,0,-0.57,2.32,9.5,7.30966544151306
,0,0.12,-0.03,-0.49,0.86,-0.01,0.01,-0.05,-0.64,2.05,9.65,0,0,0,-0.57,2.32,9.5,7.3249351978302
,0,0.12,-0.03,-0.49,0.86,-0,0.02,-0.05,-0.74,2,9.76,0,0,0,-0.58,2.32,9.5,7.34231758117676
,0,0.12,-0.03,-0.49,0.86,-0.02,0.01,-0.04,-0.36,2.07,9.69,0,0,0,-0.58,2.31,9.51,7.3600435256958
,0,0.12,-0.03,-0.49,0.86,-0.01,0.03,-0.04,-0.61,2.12,9.72,0,0,0,-0.58,2.31,9.51,7.37429404258728
,0,0.12,-0.03,-0.49,0.86,-0,0.02,-0.05,-0.46,2.26,9.7,0,0,0,-0.59,2.31,9.51,7.39217901229858
,0,0.12,-0.03,-0.49,0.86,-0,0.03,-0.05,-0.27,2.26,9.77,0,0,0,-0.59,2.3,9.51,7.40953779220581
,0,0.12,-0.03,-0.49,0.86,-0.01,0.05,-0.06,-0.53,1.92,9.67,0,0,0,-0.61,2.3,9.51,7.42423176765442
,0,0.12,-0.03,-0.49,0.86,-0.01,0.07,-0.07,-0.71,1.91,9.66,0,0,0,-0.61,2.29,9.51,7.44214391708374
,0,0.12,-0.03,-0.49,0.86,-0.02,0.11,-0.07,-0.76,1.89,9.67,0,0,0,-0.63,2.28,9.51,7.45999240875244
,0,0.12,-0.03,-0.49,0.86,-0.04,0.15,-0.08,-1.05,2.41,9.82,0,0,0,-0.66,2.27,9.51,7.47484111785889
,0,0.12,-0.03,-0.49,0.86,0.01,0.15,-0.08,-0.87,2.18,9.74,0,0,0,-0.68,2.27,9.51,7.49279546737671
,0,0.12,-0.03,-0.49,0.86,-0.08,0.1,-0.15,-0.61,1.43,9.71,0,0,0,-0.7,2.26,9.51,7.51013422012329
,0,0.12,-0.02,-0.5,0.86,-0.07,0.08,-0.21,-1.44,2.37,9.97,0,0,0,-0.73,2.24,9.51,7.52531170845032
,0,0.12,-0.02,-0.5,0.86,-0.08,0.08,-0.19,-0.29,1.38,9.47,0,0,0,-0.74,2.23,9.52,7.5428192615509
,0,0.12,-0.02,-0.5,0.86,-0.19,0.22,-0.21,-1.4,2.65,10.09,0,0,0,-0.79,2.19,9.52,7.56021118164062
,0,0.12,-0.02,-0.5,0.86,-0.15,0.18,-0.25,-1.34,0.98,8.13,0,0,0,-0.83,2.16,9.52,7.5755672454834
,0,0.12,-0.02,-0.5,0.86,-0.2,0.18,-0.27,-0.8,1.2,9.55,0,0,0,-0.85,2.14,9.53,7.59308791160583
,0,0.12,-0.01,-0.5,0.86,-0.27,0.17,-0.25,-0.29,2.52,9.03,0,0,0,-0.9,2.09,9.53,7.60992789268494
,0,0.11,-0.01,-0.5,0.86,-0.39,0.28,-0.28,-1.32,2.38,10.82,0,0,0,-0.95,2.02,9.54,7.62529850006104
,0,0.11,-0.01,-0.51,0.85,-0.35,0.16,-0.27,0.22,2.78,9.65,0,0,0,-0.97,1.98,9.55,7.64355874061584
,0,0.11,-0,-0.51,0.85,-0.37,0.23,-0.11,-0.37,1.98,9.9,0,0,0,-1.03,1.91,9.56,7.66070175170898
,0,0.11,-0,-0.51,0.85,-0.31,0.23,-0.04,0.43,1.34,10.09,0,0,0,-1.08,1.85,9.56,7.67498564720154
,0,0.11,0.01,-0.51,0.85,-0.31,0.47,-0.36,-0.52,2.02,9.87,0,0,0,-1.13,1.81,9.56,7.69307851791382
,0,0.11,0.01,-0.51,0.85,-0.21,0.94,-0.26,-0.95,1.59,9.7,0,0,0,-1.3,1.77,9.55,7.71024084091187
,0,0.12,0.02,-0.51,0.85,-0.1,1.35,-0.19,-1.04,1.46,9.6,0,0,0,-1.54,1.74,9.52,7.7257387638092
,0,0.12,0.04,-0.51,0.85,-0.07,1.45,-0.18,-0.08,1.95,9.87,0,0,0,-1.68,1.73,9.5,7.742995262146
,0,0.13,0.04,-0.51,0.85,-0.01,2.1,-0.28,0.62,1.51,10.18,0,0,0,-2.04,1.71,9.43,7.76028156280518
,0,0.14,0.07,-0.51,0.85,-0.06,3.39,-0.45,0.54,2.39,12.15,0,0,0,-2.6,1.69,9.29,7.77576899528503
,0,0.16,0.11,-0.51,0.84,-0.07,4,-0.53,-0.85,2.85,12.54,0,0,0,-2.97,1.67,9.19,7.79369902610779
,0,0.17,0.13,-0.51,0.84,-0.55,5.04,-0.83,1.59,3.85,14.11,0,0,0,-3.82,1.56,8.89,7.81031441688538
,0,0.2,0.18,-0.5,0.82,-0.74,5.98,-0.99,-1.82,4.29,10.85,0,0,0,-4.92,1.39,8.36,7.82573461532593
,0,0.23,0.25,-0.49,0.8,-0.25,7.48,-0.93,-0.97,4.16,11.66,0,0,0,-5.52,1.32,7.99,7.84345102310181
,0,0.24,0.28,-0.49,0.79,-0.45,7.37,-1.58,0.12,3.09,22.53,0,0,0,-6.66,1.09,7.11,7.8604724407196
,0,0.26,0.31,-0.49,0.77,-0.41,5.72,-1.79,2.97,5.92,18.73,0,0,0,-7.21,0.86,6.58,7.87577342987061
,0,0.26,0.31,-0.5,0.76,0.53,0.27,-1.22,1.73,7.97,15.74,0,0,0,-7.24,0.81,6.55,7.89374303817749
,0,0.25,0.31,-0.51,0.76,-0.23,-1.11,-0.78,3.69,6.92,9.19,0,0,0,-7.14,0.68,6.68,7.91103672981262
,0,0.24,0.3,-0.51,0.77,-0.36,-1.33,-0.56,3.18,5.49,6.67,0,0,0,-6.96,0.58,6.88,7.92576813697815
,0,0.23,0.29,-0.52,0.77,0.01,-1.65,-0.12,3,5.63,6.44,0,0,0,-6.85,0.57,6.99,7.94330167770386
,0,0.23,0.28,-0.52,0.77,0.33,-1.97,0.41,2.06,5.13,7.72,0,0,0,-6.58,0.65,7.23,7.96076631546021
,0,0.22,0.26,-0.52,0.78,0.41,-2.14,0.66,0.89,3.82,9.13,0,0,0,-6.25,0.81,7.51,7.97570443153381
,0,0.22,0.23,-0.52,0.79,0.59,-2.71,1.01,0.45,2.9,8.99,0,0,0,-6.04,0.91,7.66,7.99412703514099
,0,0.21,0.22,-0.52,0.8,0.8,-3.15,1.04,-0.76,1.12,8.45,0,0,0,-5.55,1.14,7.99,8.01053929328918
,0,0.21,0.18,-0.52,0.81,0.85,-3.28,0.96,-1.73,1,9.14,0,0,0,-5,1.37,8.31,8.02586126327515
,0,0.19,0.15,-0.52,0.82,0.83,-3.5,0.74,-2.39,1.49,10.2,0,0,0,-4.71,1.47,8.47,8.04441809654236
,0,0.19,0.13,-0.52,0.82,0.92,-3.68,0.61,-3.3,2.31,11.33,0,0,0,-4.09,1.67,8.75,8.06114506721497
,0,0.18,0.1,-0.53,0.83,1.01,-3.75,0.62,-3.94,3.73,11.24,0,0,0,-3.41,1.9,8.99,8.07682657241821
,0,0.17,0.06,-0.53,0.83,1.11,-3.82,0.82,-3.37,3.94,10.99,0,0,0,-3.06,2.02,9.09,8.09488821029663
,0,0.17,0.04,-0.53,0.83,1.17,-3.74,1.1,-4.39,3.68,12.01,0,0,0,-2.36,2.28,9.23,8.11153960227966
,0,0.16,0,-0.52,0.84,1.14,-3.63,1.28,-4.79,4.08,13.18,0,0,0,-1.64,2.54,9.32,8.12692213058472
,0,0.15,-0.03,-0.52,0.84,1.03,-3.6,1.33,-5.03,3.96,13.66,0,0,0,-1.28,2.65,9.35,8.1457850933075
,0,0.14,-0.05,-0.51,0.85,0.9,-3.54,1.31,-5.76,2.95,13.61,0,0,0,-0.57,2.84,9.36,8.16158509254456
,0,0.13,-0.09,-0.51,0.85,0.91,-3.38,1.2,-6.71,3.48,12.62,0,0,0,0.11,3.01,9.33,8.17700958251953
,0,0.12,-0.12,-0.5,0.85,0.86,-3.21,1.18,-8.05,3.4,11.28,0,0,0,0.44,3.08,9.29,8.19579553604126
,0,0.12,-0.13,-0.5,0.85,0.82,-2.66,1.19,-9.67,2.4,10.44,0,0,0,1.01,3.21,9.2,8.21170282363892
,0,0.11,-0.15,-0.49,0.85,0.64,-1.94,1.19,-12.69,-0.13,9.95,0,0,0,1.47,3.31,9.1,8.22701263427734
,0,0.11,-0.17,-0.48,0.85,0.49,-1.62,1.15,-13.5,-1.69,10.43,0,0,0,1.65,3.34,9.06,8.24583148956299
,0,0.11,-0.17,-0.48,0.86,0.64,-1.15,0.95,-15.99,-3.57,11.25,0,0,0,1.93,3.41,8.98,8.26193141937256
,0,0.11,-0.19,-0.47,0.86,0.56,-0.76,0.74,-17.25,-4.23,5.03,0,0,0,2.14,3.49,8.91,8.27716422080994
,0,0.1,-0.19,-0.46,0.86,0.19,-0.34,0.6,-17.46,-4.8,3.36,0,0,0,2.19,3.49,8.89,8.29570913314819
,0,0.1,-0.18,-0.46,0.86,-0.62,0.85,0.24,-9.62,-1.42,2.94,0,0,0,2.12,3.4,8.94,8.31221342086792
,0,0.1,-0.16,-0.46,0.86,-1.34,1.36,0.11,5.65,6.53,15.94,0,0,0,1.89,3.16,9.08,8.32754898071289
,0,0.09,-0.15,-0.47,0.87,-1.26,1.07,-0.05,6.33,3.22,3.5,0,0,0,1.8,3.05,9.14,8.34592938423157
,0,0.09,-0.13,-0.47,0.87,-1.16,2.4,-0.22,-0.94,-2.96,17.15,0,0,0,1.41,2.84,9.27,8.36185050010681
,0,0.1,-0.11,-0.47,0.87,-0.79,2.23,-0.37,-1.55,-1.53,16.94,0,0,0,1.02,2.75,9.35,8.37704300880432
,0,0.11,-0.1,-0.47,0.87,-0,1.53,-0.45,0.55,2.23,11.03,0,0,0,0.87,2.75,9.37,8.3962733745575
,0,0.11,-0.1,-0.47,0.87,0.2,1.52,-0.39,0,3.3,10.15,0,0,0,0.58,2.79,9.38,8.41222286224365
,0,0.12,-0.08,-0.47,0.87,0.18,1.53,-0.34,-0.9,4.17,12.85,0,0,0,0.3,2.82,9.38,8.42729210853577
,0,0.13,-0.07,-0.47,0.87,0.03,1.24,-0.15,-0.83,3.78,15.75,0,0,0,0.18,2.82,9.38,8.44612407684326
,0,0.13,-0.07,-0.47,0.87,-0.15,0.54,-0.01,-0.11,3.09,10.56,0,0,0,0.04,2.8,9.39,8.46227645874023
,0,0.13,-0.07,-0.47,0.87,-0.23,0.51,-0.02,-0.46,3.15,10.68,0,0,0,-0.04,2.76,9.4,8.47798681259155
,0,0.13,-0.06,-0.47,0.87,-0.17,0.24,-0.07,0.06,2.96,10.05,0,0,0,-0.06,2.75,9.41,8.49691128730774
,0,0.13,-0.06,-0.47,0.87,-0.18,0.09,-0.04,-0.03,2.53,9.74,0,0,0,-0.09,2.72,9.42,8.51262950897217
,0,0.12,-0.06,-0.47,0.87,-0.19,0.03,-0.05,0.25,2.42,9.86,0,0,0,-0.1,2.68,9.43,8.52828907966614
,0,0.12,-0.06,-0.47,0.87,-0.16,0.07,-0.04,-0.42,2.56,10.09,0,0,0,-0.11,2.67,9.43,8.54714179039001
,0,0.12,-0.06,-0.47,0.87,-0.14,0.06,-0.06,-0.41,2.17,10,0,0,0,-0.12,2.64,9.44,8.56279110908508
,0,0.12,-0.06,-0.47,0.87,-0.13,0.21,-0.09,-0.98,2.23,10.2,0,0,0,-0.16,2.62,9.44,8.57785391807556
,0,0.12,-0.06,-0.47,0.87,-0.09,0.18,-0.08,-0.94,2.19,9.52,0,0,0,-0.18,2.61,9.44,8.59727501869202
,0,0.12,-0.05,-0.47,0.87,-0.08,0.17,-0.1,-1.33,2.44,9.89,0,0,0,-0.21,2.59,9.45,8.61267018318176
,0,0.12,-0.05,-0.47,0.87,-0.07,0.14,-0.06,-0.54,2.59,10,0,0,0,-0.23,2.58,9.45,8.62798738479614
,0,0.12,-0.05,-0.48,0.87,-0.03,-0.09,-0.04,-0.11,2.39,9.71,0,0,0,-0.22,2.58,9.45,8.64720344543457
,0,0.12,-0.05,-0.48,0.87,-0.05,0.04,-0.04,-0.18,2.43,9.88,0,0,0,-0.22,2.57,9.45,8.66296720504761
,0,0.12,-0.05,-0.48,0.87,-0.04,0.05,-0.04,-0.25,2.45,9.85,0,0,0,-0.24,2.57,9.46,8.67813158035278
,0,0.12,-0.05,-0.48,0.87,-0.03,0.04,-0.03,-0.56,2.35,9.61,0,0,0,-0.24,2.56,9.46,8.69695520401001
,0,0.12,-0.05,-0.48,0.87,-0.02,0,-0.02,-0.57,2.25,9.55,0,0,0,-0.25,2.56,9.46,8.71287751197815
,0,0.12,-0.05,-0.48,0.87,-0.01,-0,-0.02,-0.4,2.36,9.57,0,0,0,-0.25,2.55,9.46,8.72839689254761
,0,0.12,-0.05,-0.48,0.87,-0.02,0.03,-0.02,-0.48,2.23,9.5,0,0,0,-0.26,2.55,9.46,8.74729037284851
,0,0.12,-0.05,-0.48,0.87,-0,0.02,-0.03,-0.49,2.23,9.53,0,0,0,-0.27,2.54,9.46,8.76355504989624
,0,0.12,-0.05,-0.48,0.87,-0.01,0.02,-0.03,-0.51,2.23,9.4,0,0,0,-0.28,2.53,9.46,8.77839398384094
,0,0.12,-0.05,-0.48,0.87,-0.02,0.06,-0.05,-0.48,2.28,9.71,0,0,0,-0.29,2.53,9.46,8.79550075531006
,0,0.12,-0.05,-0.48,0.87,-0.03,0.05,-0.07,-0.61,2.62,9.88,0,0,0,-0.3,2.52,9.47,8.81201791763306
,0,0.12,-0.05,-0.48,0.87,-0.04,0.03,-0.08,-0.17,2.59,9.51,0,0,0,-0.31,2.51,9.47,8.82728552818298
,0,0.12,-0.05,-0.48,0.87,-0.07,0.02,-0.09,-0.18,2.42,9.67,0,0,0,-0.31,2.5,9.47,8.84663534164429
,0,0.12,-0.05,-0.48,0.87,-0.08,0.05,-0.1,-0.75,2.35,9.68,0,0,0,-0.33,2.49,9.47,8.86282849311829
,0,0.12,-0.05,-0.48,0.87,-0.07,0.06,-0.1,-0.71,2.33,9.75,0,0,0,-0.35,2.47,9.48,8.8777437210083
,0,0.12,-0.05,-0.48,0.87,-0.07,0.03,-0.1,-0.16,2.35,9.61,0,0,0,-0.35,2.46,9.48,8.8954131603241
,0,0.12,-0.04,-0.48,0.87,-0.07,0.04,-0.1,-0.21,2.18,9.75,0,0,0,-0.37,2.45,9.48,8.91215658187866
,0,0.12,-0.04,-0.48,0.87,-0.07,0.06,-0.1,-0.28,2.19,9.72,0,0,0,-0.38,2.43,9.49,8.92729234695435
,0,0.12,-0.04,-0.48,0.87,-0.05,0.08,-0.13,-0.05,2.24,9.54,0,0,0,-0.39,2.43,9.49,8.94551515579224
,0,0.12,-0.04,-0.48,0.87,-0.06,0.12,-0.15,-0.71,1.97,9.7,0,0,0,-0.42,2.42,9.49,8.9620623588562
,0,0.12,-0.04,-0.49,0.87,-0.04,0.16,-0.16,-1.04,2.13,9.98,0,0,0,-0.46,2.41,9.49,8.97733879089355
,0,0.12,-0.04,-0.49,0.86,-0.02,0.1,-0.15,-0.65,2.2,9.69,0,0,0,-0.47,2.41,9.49,8.99659299850464
,0,0.12,-0.04,-0.49,0.86,-0.03,0.13,-0.14,-0.96,1.94,9.72,0,0,0,-0.5,2.4,9.49,9.01308488845825
,0,0.12,-0.04,-0.49,0.86,-0.04,0.11,-0.16,-0.47,1.08,8.69,0,0,0,-0.53,2.39,9.49,9.02762007713318
,0,0.12,-0.04,-0.49,0.86,-0.12,0.12,-0.27,0.07,2.91,9.59,0,0,0,-0.55,2.38,9.49,9.04696655273438
,0,0.12,-0.03,-0.49,0.86,-0.21,0.13,-0.31,-0.95,2.45,9.21,0,0,0,-0.58,2.34,9.5,9.06326866149902
,0,0.12,-0.03,-0.5,0.86,-0.28,0.09,-0.39,-0.59,2.37,10.41,0,0,0,-0.61,2.27,9.51,9.07834672927856
,0,0.12,-0.03,-0.5,0.86,-0.4,0.05,-0.4,-0.21,2.92,9.96,0,0,0,-0.62,2.23,9.52,9.09775280952454
,0,0.11,-0.03,-0.5,0.86,-0.41,0.15,-0.46,-0.75,2.12,10.45,0,0,0,-0.66,2.15,9.54,9.11304187774658
,0,0.11,-0.02,-0.5,0.86,-0.39,0.2,-0.4,1.15,1.88,9.48,0,0,0,-0.74,2.08,9.55,9.12814211845398
,0,0.11,-0.02,-0.51,0.86,-0.34,0.76,-0.56,-0.69,2.07,10.01,0,0,0,-0.82,2.04,9.55,9.14861106872559
,0,0.12,-0.01,-0.51,0.85,-0.15,1.01,-0.35,-0.49,1.75,9.74,0,0,0,-1.02,2,9.54,9.16432189941406
,0,0.12,0,-0.51,0.85,-0.15,1.01,-0.35,0.16,1.82,9.63,0,0,0,-1.24,1.96,9.52,9.17924904823303
,0,0.12,0.01,-0.51,0.85,-0.22,1.39,-0.26,0.15,2.12,9.73,0,0,0,-1.37,1.94,9.51,9.1991720199585
,0,0.13,0.03,-0.51,0.85,-0.26,1.95,-0.23,0.67,2.54,10.1,0,0,0,-1.71,1.88,9.46,9.21392154693604
,0,0.14,0.05,-0.51,0.85,-0.28,2.34,-0.3,1.13,3.16,10.77,0,0,0,-2.2,1.82,9.37,9.22900676727295
,0,0.15,0.08,-0.51,0.84,-0.32,3.45,-0.42,0.52,3.32,12.78,0,0,0,-2.52,1.78,9.3,9.24945116043091
,0,0.16,0.1,-0.51,0.84,-0.64,4.56,-0.73,-1.21,4.24,14.94,0,0,0,-3.3,1.65,9.08,9.26460647583008
,0,0.18,0.15,-0.5,0.83,-0.99,5.1,-1.07,-1.6,3.49,11.66,0,0,0,-4.3,1.42,8.69,9.2794942855835
,0,0.21,0.21,-0.5,0.81,-0.45,6.93,-0.8,-1.89,4.04,11.83,0,0,0,-4.89,1.35,8.39,9.30035710334778
,0,0.22,0.25,-0.5,0.8,-0.87,7.12,-1.79,-0.89,-0.01,24.21,0,0,0,-6.03,1.07,7.65,9.31557822227478
,0,0.24,0.29,-0.5,0.78,-0.01,3.62,-2.41,-4.63,2.81,25.71,0,0,0,-6.78,0.74,7.04,9.33103132247925
,0,0.23,0.3,-0.52,0.77,0.55,0.69,-2.28,1.8,5.45,17.52,0,0,0,-6.82,0.51,7.01,9.35087513923645
,0,0.23,0.29,-0.53,0.76,-0.06,-0.88,-1.83,3.69,8.26,8.14,0,0,0,-6.77,0.38,7.07,9.36610674858093
,0,0.22,0.29,-0.54,0.76,-0.14,-1.12,-1.03,3.18,8.67,7.84,0,0,0,-6.63,0.19,7.21,9.38131427764893
,0,0.21,0.28,-0.54,0.76,0.05,-1.3,-0.54,2.76,8.78,6.96,0,0,0,-6.44,0.17,7.39,9.40110945701599
,0,0.21,0.27,-0.54,0.77,0.33,-1.65,0.44,2.24,6.6,6.5,0,0,0,-6.32,0.22,7.49,9.41678261756897
,0,0.21,0.25,-0.54,0.77,0.69,-1.94,1.05,1.19,3.37,7.93,0,0,0,-6.04,0.42,7.71,9.43293237686157
,0,0.2,0.23,-0.54,0.78,0.87,-2.13,1.18,0.69,2.71,8.59,0,0,0,-5.68,0.7,7.95,9.4520046710968
,0,0.2,0.22,-0.54,0.79,1.08,-2.6,1.22,-0.34,1.8,9.03,0,0,0,-5.47,0.85,8.09,9.46828460693359
,0,0.2,0.19,-0.54,0.8,1.08,-2.99,1.06,-1.25,1.09,8.87,0,0,0,-4.99,1.14,8.36,9.48545026779175
,0,0.19,0.15,-0.54,0.81,1.11,-3.12,0.96,-1.75,1.42,9.35,0,0,0,-4.44,1.41,8.62,9.5031623840332
,0,0.19,0.12,-0.54,0.81,1.22,-3.29,0.85,-2.17,2.2,10.04,0,0,0,-4.15,1.55,8.74,9.52055764198303
,0,0.18,0.08,-0.54,0.82,1.29,-3.4,0.93,-2.63,2.93,10.58,0,0,0,-3.55,1.83,8.95,9.53822994232178
,0,0.18,0.07,-0.54,0.82,1.3,-3.4,1.14,-3.56,2.79,11.02,0,0,0,-2.91,2.13,9.11,9.55648970603943
,0,0.17,0.03,-0.53,0.83,1.25,-3.4,1.3,-3.43,2.75,11.3,0,0,0,-2.24,2.41,9.23,9.57294011116028
,0,0.16,-0,-0.53,0.83,1.16,-3.34,1.35,-4.08,3.81,12.23,0,0,0,-1.58,2.66,9.3,9.58985042572021
,0,0.16,-0.02,-0.52,0.84,0.86,-3.23,1.46,-5.07,4.34,14.23,0,0,0,-1.25,2.76,9.32,9.60993385314941
,0,0.14,-0.05,-0.52,0.84,0.8,-3.27,1.61,-6.55,4.22,13.48,0,0,0,-0.58,2.93,9.33,9.62518119812012
,0,0.13,-0.09,-0.51,0.85,0.83,-3.25,1.7,-7.69,3.3,12.13,0,0,0,0.09,3.09,9.3,9.64123272895813
,0,0.13,-0.12,-0.49,0.85,0.76,-2.96,1.81,-8.35,2.52,11.72,0,0,0,0.41,3.15,9.27,9.66185188293457
,0,0.12,-0.13,-0.49,0.86,0.68,-2.46,1.76,-10.53,0.76,10.99,0,0,0,0.98,3.25,9.19,9.67705655097961
,0,0.11,-0.15,-0.48,0.86,0.44,-1.88,1.5,-12.93,0.01,10.89,0,0,0,1.44,3.3,9.11,9.69261002540588
,0,0.11,-0.16,-0.47,0.86,0.23,-1.61,1.3,-14.98,-3.36,10,0,0,0,1.78,3.31,9.05,9.71220088005066
,0,0.11,-0.17,-0.46,0.86,0.56,-1.12,0.72,-16.31,-3.99,7.5,0,0,0,1.9,3.35,9.01,9.72732663154602
,0,0.11,-0.18,-0.46,0.86,0.59,-0.4,0.16,-16.43,-3.29,4.75,0,0,0,2.03,3.45,8.94,9.74323701858521
,0,0.11,-0.18,-0.46,0.86,0.29,0.06,-0.01,-16.19,-3.22,4.47,0,0,0,1.97,3.46,8.95,9.76237988471985
,0,0.11,-0.17,-0.46,0.86,-1.54,1.42,-0.12,-6.94,-6.66,1.27,0,0,0,1.84,3.33,9.03,9.77714991569519
,0,0.1,-0.15,-0.46,0.87,-0.91,1.38,-0.13,3.18,-0.04,6.38,0,0,0,1.57,3.08,9.17,9.79364395141602
,0,0.1,-0.13,-0.47,0.87,-0.65,1.45,-0.3,4.08,-2.63,1.15,0,0,0,1.22,2.95,9.26,9.81289935112
,0,0.11,-0.12,-0.47,0.87,-0.6,2.38,-0.56,-2.45,1.18,18.82,0,0,0,0.99,2.91,9.31,9.82801342010498
,0,0.12,-0.1,-0.47,0.87,-0.04,1.48,-0.45,-0.68,2.62,12.44,0,0,0,0.65,2.89,9.34,9.8436815738678
,0,0.12,-0.09,-0.47,0.87,0.07,1.3,-0.39,1.82,4.74,10.27,0,0,0,0.38,2.9,9.36,9.86267447471619
,0,0.12,-0.08,-0.47,0.87,-0.11,1.45,-0.17,1.31,4.92,14.89,0,0,0,0.24,2.89,9.36,9.87777662277222
,0,0.13,-0.07,-0.47,0.87,-0.39,0.83,-0.08,0.09,3.72,9.86,0,0,0,0.03,2.82,9.39,9.89382529258728
,0,0.13,-0.06,-0.47,0.87,-0.48,0.56,-0.09,-0.71,2.69,10.53,0,0,0,-0.06,2.73,9.41,9.91286444664001
,0,0.12,-0.06,-0.47,0.87,-0.37,0.35,-0.07,-0.53,2.68,10.25,0,0,0,-0.1,2.7,9.42,9.92830181121826
,0,0.12,-0.06,-0.47,0.87,-0.37,0.2,-0.08,0.51,2.34,9.37,0,0,0,-0.14,2.63,9.44,9.9435818195343
,0,0.12,-0.05,-0.47,0.87,-0.33,0.21,-0.16,-0.17,2.24,9.55,0,0,0,-0.19,2.57,9.45,9.96254944801331
,0,0.12,-0.05,-0.47,0.87,-0.23,0.17,-0.17,-0.46,2.46,10.27,0,0,0,-0.21,2.55,9.46,9.97758078575134
,0,0.12,-0.05,-0.48,0.87,-0.12,0.16,-0.22,-0.82,2.43,10.05,0,0,0,-0.25,2.52,9.47,9.99355673789978
,0,0.12,-0.05,-0.48,0.87,-0.09,0.17,-0.11,-0.97,2.04,10.11,0,0,0,-0.28,2.51,9.47,10.0131154060364
,0,0.12,-0.05,-0.48,0.87,-0.07,0.09,-0.08,-0.87,2.55,9.81,0,0,0,-0.29,2.5,9.47,10.0275464057922
,0,0.12,-0.05,-0.48,0.87,-0.08,0.1,-0.09,-1.06,2.19,9.82,0,0,0,-0.31,2.49,9.47,10.0427725315094
,0,0.12,-0.05,-0.48,0.87,-0.09,0.17,-0.09,-1.13,2.31,9.44,0,0,0,-0.33,2.48,9.48,10.0627837181091
,0,0.12,-0.04,-0.48,0.87,-0.07,0.23,-0.09,-1.5,2.38,9.9,0,0,0,-0.38,2.46,9.48,10.0774250030518
,0,0.12,-0.04,-0.48,0.87,-0.04,0.08,-0.07,0.26,2.09,9.68,0,0,0,-0.38,2.46,9.48,10.0929553508759
,0,0.12,-0.04,-0.48,0.87,0,0.07,-0.07,-0.84,1.96,9.95,0,0,0,-0.39,2.46,9.48,10.1122975349426
,0,0.12,-0.04,-0.48,0.87,-0.01,0.05,-0.05,-0.27,2.35,9.66,0,0,0,-0.4,2.46,9.48,10.1272695064545
,0,0.12,-0.04,-0.48,0.87,-0,0.06,-0.05,-0.66,2.36,9.7,0,0,0,-0.42,2.46,9.48,10.14271235466
,0,0.12,-0.04,-0.48,0.87,-0,0.1,-0.04,-0.98,2.08,9.55,0,0,0,-0.43,2.46,9.48,10.1628086566925
,0,0.12,-0.04,-0.48,0.87,0,0.02,-0.04,-0.53,2.19,9.66,0,0,0,-0.44,2.46,9.48,10.177393913269
,0,0.12,-0.04,-0.48,0.87,0.01,0.04,-0.04,-0.53,2.13,9.61,0,0,0,-0.45,2.46,9.48,10.1925806999207
,0,0.12,-0.04,-0.48,0.87,0.03,0.07,-0.05,-0.7,2.2,9.61,0,0,0,-0.46,2.46,9.47,10.2128703594208
,0,0.12,-0.04,-0.48,0.87,0.03,0.05,-0.05,-0.56,2.25,9.7,0,0,0,-0.47,2.47,9.47,10.2271780967712
,0,0.12,-0.04,-0.48,0.87,0.03,0.03,-0.05,-0.77,2.33,9.7,0,0,0,-0.48,2.47,9.47,10.2428076267242
,0,0.12,-0.04,-0.48,0.87,0.02,0.03,-0.05,-0.59,2.35,9.65,0,0,0,-0.49,2.47,9.47,10.262314081192
,0,0.12,-0.04,-0.48,0.87,0.01,0.02,-0.06,-0.85,2.38,9.77,0,0,0,-0.5,2.47,9.47,10.2773237228394
,0,0.12,-0.04,-0.48,0.87,0.01,0,-0.05,-0.87,2.2,9.83,0,0,0,-0.5,2.46,9.47,10.2928578853607
,0,0.12,-0.04,-0.48,0.87,0.01,0,-0.05,-0.37,2.18,9.73,0,0,0,-0.5,2.46,9.47,10.3129541873932
,0,0.12,-0.04,-0.48,0.87,0.02,0.02,-0.04,-0.54,2.16,9.73,0,0,0,-0.51,2.46,9.47,10.3271842002869
,0,0.12,-0.04,-0.48,0.87,0.02,0.02,-0.04,-0.56,2.19,9.71,0,0,0,-0.52,2.45,9.47,10.3429136276245
,0,0.12,-0.04,-0.48,0.87,0.03,0.02,-0.07,-0.87,2.17,9.8,0,0,0,-0.52,2.45,9.47,10.3627202510834
,0,0.12,-0.04,-0.48,0.87,0.02,0.03,-0.08,-0.55,2.1,9.52,0,0,0,-0.53,2.45,9.47,10.3774554729462
,0,0.12,-0.04,-0.49,0.86,0.02,0.04,-0.09,-0.55,2.38,9.74,0,0,0,-0.55,2.44,9.47,10.3931958675385
,0,0.12,-0.04,-0.49,0.86,-0,0.03,-0.11,-0.61,2.25,9.61,0,0,0,-0.55,2.44,9.48,10.4129252433777
,0,0.12,-0.04,-0.49,0.86,-0.01,0.04,-0.09,-0.87,2.26,9.82,0,0,0,-0.56,2.44,9.48,10.4275085926056
,0,0.12,-0.04,-0.49,0.86,-0.03,0.01,-0.11,-0.86,1.9,9.73,0,0,0,-0.57,2.42,9.48,10.4437501430511
,0,0.12,-0.04,-0.49,0.86,-0.06,0,-0.14,-1.04,1.98,9.91,0,0,0,-0.58,2.41,9.48,10.4630625247955
,0,0.12,-0.03,-0.49,0.86,-0.15,-0.04,-0.24,-1.24,2.01,11.26,0,0,0,-0.58,2.39,9.49,10.4779562950134
,0,0.12,-0.03,-0.49,0.86,-0.2,0,-0.25,-0.69,2.77,9.12,0,0,0,-0.58,2.35,9.5,10.4937541484833
,0,0.12,-0.03,-0.5,0.86,-0.31,-0.04,-0.29,-0.72,2.74,9.12,0,0,0,-0.58,2.32,9.5,10.5137436389923
,0,0.12,-0.03,-0.5,0.86,-0.33,-0.03,-0.36,0.47,2.86,9.72,0,0,0,-0.59,2.25,9.52,10.5280737876892
,0,0.11,-0.03,-0.5,0.86,-0.33,0.13,-0.33,-0.57,2.86,10.33,0,0,0,-0.65,2.18,9.53,10.5436403751373
,0,0.11,-0.02,-0.5,0.86,-0.33,0.35,-0.42,-0.64,1.89,10.03,0,0,0,-0.69,2.15,9.54,10.563502073288
,0,0.11,-0.02,-0.5,0.86,-0.23,0.61,-0.48,0.03,1.88,9.85,0,0,0,-0.81,2.09,9.54,10.5779166221619
,0,0.12,-0.01,-0.51,0.85,-0.2,0.76,-0.51,-0.83,2.32,9.45,0,0,0,-0.97,2.05,9.53,10.5940191745758
,0,0.12,-0,-0.51,0.85,-0.08,0.79,-0.35,-0.93,1.7,10,0,0,0,-1.05,2.04,9.53,10.6137194633484
,0,0.12,0,-0.51,0.85,-0.11,1.08,-0.31,-0.67,1.77,9.73,0,0,0,-1.25,2.01,9.51,10.6282904148102
,0,0.13,0.01,-0.51,0.85,-0.15,1.25,-0.31,0.7,1.99,9.65,0,0,0,-1.52,1.97,9.48,10.6438233852386
,0,0.14,0.03,-0.51,0.85,-0.19,1.93,-0.26,0.28,2.71,10.12,0,0,0,-1.7,1.95,9.45,10.663476228714
,0,0.14,0.05,-0.51,0.85,-0.15,3.05,-0.44,-0.18,2.7,11.62,0,0,0,-2.21,1.91,9.35,10.678263425827
,0,0.16,0.08,-0.51,0.84,-0.24,3.59,-0.6,-0.9,2.78,13.31,0,0,0,-2.92,1.82,9.18,10.6941654682159
,0,0.18,0.13,-0.51,0.83,-0.5,4.55,-0.87,2.74,4.61,15.76,0,0,0,-3.34,1.75,9.05,10.7138774394989
,0,0.19,0.15,-0.51,0.83,-0.99,6.35,-1.24,-0.45,4.68,11.08,0,0,0,-4.37,1.49,8.64,10.728630065918
,0,0.22,0.22,-0.5,0.81,-0.62,7.4,-0.98,-1.62,3.75,11.68,0,0,0,-5.65,1.3,7.9,10.7442326545715
,0,0.25,0.29,-0.49,0.78,-0.55,8.51,-1.7,-5.02,2.57,17.22,0,0,0,-6.31,1.16,7.41,10.7637844085693
,0,0.26,0.32,-0.49,0.77,-0.65,5.82,-2.18,-22.95,3.42,38.69,0,0,0,-7.3,0.78,6.49,10.7790088653564
,0,0.25,0.32,-0.51,0.76,0.26,0.85,-1.77,2.64,6.4,11.41,0,0,0,-7.3,0.58,6.51,10.7940831184387
,0,0.24,0.31,-0.52,0.76,-0.14,-1.76,-1.39,3.4,5.27,7.07,0,0,0,-7.2,0.48,6.64,10.8138530254364
,0,0.23,0.31,-0.53,0.76,-0.39,-1.86,-1.12,2.58,4.96,5.63,0,0,0,-6.96,0.26,6.89,10.8287479877472
,0,0.22,0.3,-0.53,0.76,-0.13,-1.93,-0.91,2.46,6.13,4.57,0,0,0,-6.69,0.16,7.16,10.8446135520935
,0,0.21,0.28,-0.54,0.77,0.29,-2.08,-0.29,2.29,6.27,4.56,0,0,0,-6.55,0.16,7.29,10.8646025657654
,0,0.21,0.27,-0.54,0.77,0.54,-2.19,0.43,1.35,5.13,6.21,0,0,0,-6.24,0.26,7.55,10.8793995380402
,0,0.2,0.24,-0.54,0.78,0.69,-2.3,0.74,0.34,3.61,7.45,0,0,0,-5.88,0.47,7.82,10.8952083587646
,0,0.2,0.22,-0.54,0.79,0.95,-2.64,1.13,-0.23,1.77,7.9,0,0,0,-5.67,0.61,7.97,10.913919210434
,0,0.2,0.2,-0.54,0.79,1.12,-3.01,1.13,-0.95,0.88,8.48,0,0,0,-5.2,0.9,8.26,10.9285573959351
,0,0.19,0.17,-0.54,0.8,1.16,-3.15,1.04,-2.07,0.66,9.98,0,0,0,-4.65,1.18,8.54,10.9449932575226
,0,0.18,0.13,-0.54,0.81,1.21,-3.42,0.83,-2.45,0.68,10.38,0,0,0,-4.36,1.32,8.68,10.9647569656372
,0,0.18,0.12,-0.54,0.81,1.27,-3.64,0.67,-3.4,1.74,10.81,0,0,0,-3.73,1.59,8.92,10.9787075519562
,0,0.17,0.08,-0.55,0.82,1.28,-3.69,0.66,-3.97,2.16,11.43,0,0,0,-3.06,1.86,9.12,10.9949581623077
,0,0.16,0.04,-0.55,0.82,1.32,-3.64,0.74,-4.36,2.36,11.84,0,0,0,-2.72,2,9.2,11.014838218689
,0,0.16,0.02,-0.55,0.82,1.35,-3.67,0.88,-5.15,3.31,12.39,0,0,0,-2.03,2.28,9.31,11.0296194553375
,0,0.15,-0.01,-0.54,0.83,1.28,-3.61,0.96,-6.07,3.51,12.72,0,0,0,-1.34,2.53,9.37,11.0451776981354
,0,0.14,-0.05,-0.54,0.83,1.05,-3.41,1.11,-7.12,3.49,13.51,0,0,0,-1,2.63,9.39,11.0642638206482
,0,0.13,-0.06,-0.54,0.83,1.08,-3.25,1.28,-8,3.51,12.33,0,0,0,-0.34,2.84,9.37,11.0788204669952
,0,0.12,-0.1,-0.53,0.83,1.08,-3.12,1.38,-8.8,1.59,10.21,0,0,0,0.28,3.04,9.31,11.0956070423126
,0,0.12,-0.12,-0.52,0.84,0.95,-2.63,1.53,-9.05,0.73,9.94,0,0,0,0.57,3.11,9.27,11.1150555610657
,0,0.12,-0.13,-0.51,0.84,0.74,-2.01,1.44,-9.74,-0.3,10.26,0,0,0,1.04,3.23,9.19,11.1295506954193
,0,0.11,-0.15,-0.5,0.84,0.62,-1.73,1.34,-11.15,-1.24,11.72,0,0,0,1.41,3.3,9.12,11.1455726623535
,0,0.11,-0.16,-0.49,0.85,0.49,-1.31,1.09,-11.94,-1.61,11.96,0,0,0,1.56,3.33,9.08,11.1647107601166
,0,0.11,-0.17,-0.49,0.85,0.43,-1.05,0.82,-13.19,-2.84,7.67,0,0,0,1.82,3.39,9.01,11.1793587207794
,0,0.1,-0.18,-0.49,0.85,0.32,-0.82,0.65,-13.44,-2.38,5.21,0,0,0,1.97,3.41,8.97,11.196013212204
,0,0.1,-0.18,-0.48,0.85,0.04,-0.11,0.34,-13.45,-1.9,4.63,0,0,0,1.99,3.41,8.97,11.2144498825073
,0,0.1,-0.17,-0.48,0.85,-0.69,0.79,0.27,-5.2,2.07,6.24,0,0,0,1.91,3.32,9.02,11.2291400432587
,0,0.1,-0.16,-0.48,0.86,-1.31,1.07,0.46,6.32,-1.1,1.81,0,0,0,1.75,3.08,9.14,11.2455763816833
,0,0.09,-0.14,-0.48,0.86,-0.99,1.08,0.21,3.77,-4.77,1.21,0,0,0,1.66,2.99,9.18,11.2644774913788
,0,0.1,-0.13,-0.48,0.86,-0.93,2.42,-0.29,-0.58,-4.41,17.43,0,0,0,1.26,2.83,9.3,11.279248714447
,0,0.1,-0.11,-0.48,0.86,-0.55,2.23,-0.49,-0.64,2.36,11.47,0,0,0,0.86,2.77,9.36,11.2958052158356
,0,0.11,-0.09,-0.49,0.86,0.02,1.75,-0.49,0.25,2.95,10.5,0,0,0,0.69,2.78,9.37,11.3144855499268
,0,0.12,-0.09,-0.49,0.86,0.08,1.74,-0.39,-3.62,3.84,15.54,0,0,0,0.35,2.8,9.39,11.3289110660553
,0,0.12,-0.07,-0.49,0.86,0.03,1.62,-0.28,-3.52,4.1,16.34,0,0,0,0.07,2.8,9.39,11.3454320430756
,0,0.13,-0.07,-0.49,0.86,-0.15,1.1,-0.03,-3.46,4.4,12.75,0,0,0,-0.02,2.79,9.4,11.3649711608887
,0,0.13,-0.06,-0.49,0.86,-0.32,0.47,-0.04,-0.63,2.7,11.18,0,0,0,-0.1,2.74,9.41,11.379371881485
,0,0.13,-0.06,-0.49,0.86,-0.27,0.37,-0.09,-0.03,2.81,9.9,0,0,0,-0.17,2.69,9.42,11.3956191539764
,0,0.12,-0.06,-0.49,0.86,-0.28,0.19,-0.09,-0.12,2.66,9.85,0,0,0,-0.19,2.67,9.43,11.414710521698
,0,0.12,-0.06,-0.49,0.86,-0.27,0.15,-0.08,0.13,2.21,10.03,0,0,0,-0.22,2.62,9.44,11.4294123649597
,0,0.12,-0.05,-0.49,0.86,-0.25,0.12,-0.1,0.08,2.26,10.09,0,0,0,-0.25,2.57,9.45,11.4456872940063
,0,0.12,-0.05,-0.49,0.86,-0.2,0.11,-0.13,-0.61,2.39,10.01,0,0,0,-0.26,2.55,9.46,11.4649889469147
,0,0.12,-0.05,-0.49,0.86,-0.17,0.12,-0.1,-0.55,2.28,9.61,0,0,0,-0.29,2.52,9.47,11.479672908783
,0,0.12,-0.05,-0.49,0.86,-0.15,0.16,-0.1,-0.74,2.35,9.93,0,0,0,-0.34,2.49,9.47,11.4962139129639
,0,0.12,-0.05,-0.49,0.86,-0.15,0.28,-0.14,-1.02,2.13,10.27,0,0,0,-0.37,2.48,9.47,11.5145766735077
,0,0.12,-0.04,-0.49,0.86,-0.09,0.01,-0.06,-0.32,2.42,9.61,0,0,0,-0.39,2.46,9.48,11.5292365550995
,0,0.12,-0.04,-0.49,0.86,-0.05,-0.02,-0.09,-1.07,2.46,9.77,0,0,0,-0.42,2.44,9.48,11.5462045669556
,0,0.12,-0.04,-0.49,0.86,-0.06,0.02,-0.09,-0.76,1.86,9.98,0,0,0,-0.43,2.44,9.48,11.565299987793
,0,0.12,-0.04,-0.49,0.86,-0.07,0.07,-0.08,-0.14,2.08,9.74,0,0,0,-0.44,2.42,9.49,11.5796756744385
,0,0.12,-0.04,-0.49,0.86,-0.06,0.11,-0.08,-0.6,2.21,9.79,0,0,0,-0.46,2.41,9.49,11.595724105835
,0,0.12,-0.04,-0.49,0.86,-0.03,0.07,-0.09,-0.34,2.35,9.61,0,0,0,-0.47,2.41,9.49,11.6155152320862
,0,0.12,-0.04,-0.5,0.86,-0.04,0.07,-0.08,-0.27,2.4,9.7,0,0,0,-0.49,2.4,9.49,11.6298201084137
,0,0.12,-0.04,-0.5,0.86,-0.03,0.07,-0.08,-0.88,2.27,9.83,0,0,0,-0.51,2.39,9.49,11.6463375091553
,0,0.12,-0.04,-0.5,0.86,-0.02,0.05,-0.08,-0.78,2.14,9.72,0,0,0,-0.51,2.39,9.49,11.6652915477753
,0,0.12,-0.04,-0.5,0.86,-0.02,0.04,-0.08,-0.86,2,9.84,0,0,0,-0.53,2.38,9.49,11.6798012256622
,0,0.12,-0.04,-0.5,0.86,-0.03,0.05,-0.07,-0.81,2.02,9.66,0,0,0,-0.54,2.38,9.49,11.6968398094177
,0,0.12,-0.04,-0.5,0.86,-0.02,0.04,-0.05,-0.89,2,9.63,0,0,0,-0.54,2.37,9.49,11.7154960632324
,0,0.12,-0.04,-0.5,0.86,-0.01,0.04,-0.05,-0.97,2.27,9.83,0,0,0,-0.55,2.37,9.49,11.7294983863831
,0,0.12,-0.04,-0.5,0.86,-0.01,0.03,-0.05,-0.72,2.23,9.67,0,0,0,-0.56,2.37,9.49,11.7458581924438
,0,0.12,-0.04,-0.5,0.86,-0,0,-0.04,-0.47,2.12,9.68,0,0,0,-0.57,2.36,9.49,11.7652502059937
,0,0.12,-0.04,-0.5,0.86,0.01,0.02,-0.04,-0.78,2.14,9.84,0,0,0,-0.57,2.36,9.49,11.7797803878784
,0,0.12,-0.04,-0.5,0.86,0.01,0.02,-0.04,-0.5,2.13,9.68,0,0,0,-0.58,2.36,9.5,11.7962608337402
,0,0.12,-0.03,-0.5,0.86,0.02,0.04,-0.04,-0.52,1.98,9.59,0,0,0,-0.58,2.35,9.5,11.8151247501373
,0,0.12,-0.03,-0.5,0.86,0.04,0.05,-0.05,-0.41,2.06,9.71,0,0,0,-0.59,2.36,9.49,11.8298707008362
,0,0.12,-0.03,-0.5,0.86,0.04,0.07,-0.04,-0.57,2.18,9.79,0,0,0,-0.6,2.36,9.49,11.8463673591614
,0,0.12,-0.03,-0.5,0.86,0.04,0.07,-0.06,-0.94,2.27,9.85,0,0,0,-0.61,2.36,9.49,11.8651990890503
,0,0.12,-0.03,-0.5,0.86,0.02,0.08,-0.08,-0.6,1.92,9.78,0,0,0,-0.63,2.36,9.49,11.8796677589417
,0,0.12,-0.03,-0.5,0.86,0,0.08,-0.1,-0.59,2.24,9.95,0,0,0,-0.64,2.35,9.49,11.8968420028687
,0,0.12,-0.03,-0.5,0.86,-0.05,0.05,-0.16,-1.06,2.33,9.88,0,0,0,-0.65,2.34,9.49,11.9145419597626
,0,0.12,-0.03,-0.5,0.85,-0.06,0.07,-0.15,-1.38,1.96,9.74,0,0,0,-0.67,2.33,9.5,11.9291861057281
,0,0.12,-0.03,-0.51,0.85,-0.09,0.02,-0.19,-0.43,1.46,8.13,0,0,0,-0.69,2.31,9.5,11.9465997219086
,0,0.12,-0.03,-0.51,0.85,-0.15,0.13,-0.26,0.26,2.88,9.49,0,0,0,-0.71,2.29,9.5,11.9653151035309
,0,0.12,-0.03,-0.51,0.85,-0.21,0.04,-0.28,-1.09,2.71,8.16,0,0,0,-0.73,2.25,9.51,11.9798674583435
,0,0.12,-0.03,-0.51,0.85,-0.23,-0.07,-0.26,-0.72,2.5,10.04,0,0,0,-0.73,2.2,9.52,11.9965133666992
,0,0.12,-0.02,-0.51,0.85,-0.34,0.01,-0.32,-0.41,2.78,9.47,0,0,0,-0.74,2.17,9.53,12.0152201652527
,0,0.11,-0.02,-0.52,0.85,-0.39,0.17,-0.38,-1.02,2.62,9.88,0,0,0,-0.78,2.09,9.54,12.0300235748291
,0,0.11,-0.02,-0.52,0.85,-0.44,0.26,-0.25,0.08,2.23,9.86,0,0,0,-0.84,2.01,9.56,12.0470933914185
,0,0.11,-0.01,-0.52,0.85,-0.37,0.64,-0.26,0.43,1.98,9.36,0,0,0,-0.9,1.97,9.56,12.065553188324
,0,0.11,-0,-0.52,0.85,-0.26,1,-0.45,-1.26,2.08,10.31,0,0,0,-1.1,1.91,9.55,12.0801901817322
,0,0.12,0.01,-0.52,0.85,-0.18,1.3,-0.28,-0.33,1.48,10.12,0,0,0,-1.37,1.87,9.52,12.0971231460571
,0,0.12,0.02,-0.52,0.84,-0.25,1.63,-0.23,0.62,2.16,9.81,0,0,0,-1.52,1.84,9.51,12.1162283420563
,0,0.13,0.04,-0.52,0.84,-0.28,2.27,-0.22,1.26,2.37,10.48,0,0,0,-1.91,1.78,9.45,12.1308329105377
,0,0.14,0.06,-0.52,0.84,-0.3,2.84,-0.31,-0.24,2.5,11.9,0,0,0,-2.5,1.7,9.32,12.1479609012604
,0,0.16,0.1,-0.52,0.84,-0.58,4.09,-0.44,-1.9,2.54,13.97,0,0,0,-2.88,1.64,9.22,12.1665933132172
,0,0.17,0.13,-0.51,0.83,-1.17,5.16,-0.84,1.16,3.88,11.9,0,0,0,-3.76,1.43,8.93,12.1809921264648
,0,0.19,0.19,-0.51,0.82,-1.14,6.09,-0.84,-1.66,3.92,11.45,0,0,0,-4.88,1.21,8.41,12.1983993053436
,0,0.2,0.22,-0.5,0.81,-0.9,7.34,-0.9,-1.07,3.81,12.28,0,0,0,-5.48,1.09,8.05,12.2162575721741
,0,0.23,0.28,-0.5,0.79,-1.11,6.62,-1.49,-13.28,-0.06,32.26,0,0,0,-6.54,0.75,7.26,12.2307105064392
,0,0.23,0.3,-0.5,0.77,-0.32,4.09,-1.83,-1.08,3.62,23.66,0,0,0,-6.91,0.53,6.92,12.2487297058105
,0,0.23,0.3,-0.52,0.77,0.19,-0.2,-1.48,3.56,6.2,9.77,0,0,0,-6.91,0.44,6.94,12.26642537117
,0,0.22,0.3,-0.52,0.77,-0.25,-1.07,-1.13,3.37,5.7,6.6,0,0,0,-6.78,0.25,7.07,12.2810006141663
,0,0.21,0.29,-0.53,0.77,-0.12,-1.15,-0.91,3.08,6.19,6.7,0,0,0,-6.62,0.15,7.22,12.298458814621
,0,0.21,0.29,-0.53,0.77,0.28,-1.4,-0.26,2.13,6.76,7.34,0,0,0,-6.52,0.15,7.31,12.3163394927979
,0,0.21,0.27,-0.53,0.77,0.54,-1.76,0.46,1.27,5.3,7.55,0,0,0,-6.28,0.26,7.52,12.3306725025177
,0,0.2,0.25,-0.53,0.78,0.67,-1.95,0.74,0.59,3.7,7.77,0,0,0,-5.97,0.47,7.75,12.3486752510071
,0,0.2,0.23,-0.53,0.79,0.88,-2.34,1.03,-0.3,2.23,8.7,0,0,0,-5.79,0.59,7.88,12.3668315410614
,0,0.2,0.21,-0.53,0.8,1.07,-2.73,1.03,-1.41,1.39,9.07,0,0,0,-5.37,0.87,8.15,12.3811233043671
,0,0.19,0.18,-0.53,0.8,1.09,-2.9,0.97,-1.74,1.34,9.15,0,0,0,-4.87,1.13,8.43,12.398930311203
,0,0.19,0.15,-0.53,0.81,1.06,-3.15,0.79,-2.57,1.29,10.02,0,0,0,-4.6,1.26,8.56,12.4176690578461
,0,0.18,0.13,-0.54,0.81,1.12,-3.3,0.66,-3.1,1.87,10.28,0,0,0,-4.03,1.5,8.8,12.4316923618317
,0,0.17,0.1,-0.54,0.82,1.15,-3.35,0.65,-3.16,2.19,10.39,0,0,0,-3.43,1.75,9.01,12.4497265815735
,0,0.17,0.07,-0.54,0.82,1.16,-3.28,0.75,-3.72,2.31,10.76,0,0,0,-3.13,1.87,9.09,12.4670696258545
,0,0.16,0.05,-0.54,0.83,1.2,-3.35,0.87,-3.81,1.93,11.35,0,0,0,-2.51,2.13,9.23,12.4816267490387
,0,0.16,0.01,-0.54,0.83,1.2,-3.33,0.9,-4.13,2.02,11.67,0,0,0,-1.87,2.38,9.32,12.49991106987
,0,0.15,-0.02,-0.53,0.83,1.13,-3.25,0.84,-5.04,2.87,12.51,0,0,0,-1.56,2.5,9.35,12.5187184810638
,0,0.14,-0.03,-0.53,0.83,0.93,-3.19,0.82,-6.99,3.79,12.7,0,0,0,-0.94,2.7,9.38,12.5333349704742
,0,0.13,-0.06,-0.53,0.84,0.87,-3.16,0.87,-7.95,3.7,10.76,0,0,0,-0.32,2.86,9.37,12.5510804653168
,0,0.13,-0.09,-0.52,0.84,0.88,-2.92,1.04,-8.03,3.49,9.72,0,0,0,0.24,3.02,9.32,12.5693924427032
,0,0.12,-0.11,-0.52,0.84,0.86,-2.39,1.21,-9.61,1.73,11.83,0,0,0,0.49,3.1,9.28,12.5836448669434
,0,0.12,-0.13,-0.51,0.84,0.9,-2.18,1.25,-10.09,0.39,11.64,0,0,0,0.95,3.25,9.2,12.6020803451538
,0,0.12,-0.15,-0.5,0.84,1.01,-1.92,1.23,-10.46,-0.52,10.08,0,0,0,1.35,3.4,9.09,12.6207129955292
,0,0.11,-0.16,-0.5,0.85,0.82,-1.52,1.09,-11.02,-1.02,8.42,0,0,0,1.52,3.45,9.04,12.6363875865936
,0,0.11,-0.17,-0.49,0.85,0.35,-0.94,0.85,-12.5,-2.89,8.2,0,0,0,1.77,3.5,8.98,12.6548957824707
,0,0.11,-0.18,-0.49,0.85,0.29,-0.7,0.66,-13.04,-2.52,6.28,0,0,0,1.91,3.52,8.95,12.6728081703186
,0,0.11,-0.18,-0.48,0.85,-0.07,-0.11,0.29,-13.23,-2.15,4.98,0,0,0,1.9,3.47,8.97,12.6875784397125
,0,0.11,-0.17,-0.48,0.85,-1.22,1.02,0.07,-1.89,-5.19,6.74,0,0,0,1.82,3.36,9.02,12.7062768936157
,0,0.1,-0.15,-0.48,0.86,-1.44,1.47,0.12,3.85,-5.44,2.84,0,0,0,1.56,3.02,9.19,12.7242558002472
,0,0.1,-0.13,-0.49,0.86,-0.69,1.39,-0.04,0.89,-1.4,13.05,0,0,0,1.24,2.9,9.28,12.7392761707306
,0,0.11,-0.11,-0.49,0.86,-0.71,2.54,-0.61,-1.7,2.51,16.96,0,0,0,0.99,2.84,9.33,12.7571930885315
,0,0.11,-0.1,-0.49,0.86,-0.23,1.88,-0.45,-0.74,3.33,12.42,0,0,0,0.58,2.8,9.38,12.7748186588287
,0,0.12,-0.08,-0.49,0.86,-0.17,1.49,-0.3,0.56,2.45,11.96,0,0,0,0.3,2.76,9.4,12.7898001670837
,0,0.12,-0.07,-0.49,0.86,-0.13,1.49,-0.11,-6.69,4.19,16.78,0,0,0,0.16,2.75,9.4,12.8083817958832
,0,0.12,-0.07,-0.49,0.86,-0.14,0.51,-0.04,0.33,3.42,10,0,0,0,-0.01,2.73,9.41,12.8252801895142
,0,0.12,-0.07,-0.49,0.86,-0.25,0.41,-0.02,-0.58,3.24,10.21,0,0,0,-0.08,2.7,9.42,12.8405847549438
,0,0.12,-0.06,-0.49,0.86,-0.11,0.22,-0.06,-1.38,2.94,10.91,0,0,0,-0.1,2.69,9.42,12.8591728210449
,0,0.12,-0.06,-0.49,0.86,-0.18,0.06,-0.05,0.04,2.78,9.57,0,0,0,-0.12,2.65,9.43,12.875661611557
,0,0.12,-0.06,-0.49,0.86,-0.2,0.09,-0.08,-0.78,2.41,9.76,0,0,0,-0.14,2.62,9.44,12.8909020423889
,0,0.12,-0.06,-0.49,0.86,-0.18,0.11,-0.12,-0.81,2.26,9.9,0,0,0,-0.16,2.6,9.45,12.9096839427948
,0,0.12,-0.06,-0.49,0.86,-0.15,0.05,-0.08,-0.09,2.15,9.84,0,0,0,-0.17,2.57,9.46,12.9257342815399
,0,0.12,-0.06,-0.49,0.86,-0.12,0.13,-0.13,-0.96,2.55,10.03,0,0,0,-0.19,2.55,9.46,12.9406440258026
,0,0.12,-0.05,-0.49,0.86,-0.12,0.25,-0.09,-0.19,2.54,9.72,0,0,0,-0.21,2.54,9.46,12.9598696231842
,0,0.12,-0.05,-0.49,0.86,-0.12,0.21,-0.09,-0.29,2.56,9.83,0,0,0,-0.26,2.51,9.47,12.9765248298645
,0,0.12,-0.05,-0.49,0.86,-0.09,0.01,-0.05,-0.28,2.36,9.47,0,0,0,-0.28,2.49,9.47,12.9914174079895
,0,0.12,-0.05,-0.49,0.86,-0.08,-0.07,-0.08,-0.62,2.77,9.84,0,0,0,-0.28,2.49,9.48,13.0096838474274
,0,0.12,-0.05,-0.49,0.86,-0.08,0.1,-0.1,-0.39,2.31,9.83,0,0,0,-0.29,2.47,9.48,13.0260217189789
,0,0.12,-0.05,-0.5,0.86,-0.09,0.13,-0.11,-0.81,2.05,9.87,0,0,0,-0.32,2.45,9.48,13.0415647029877
,0,0.12,-0.05,-0.5,0.86,-0.08,0.13,-0.12,-0.75,2.16,9.72,0,0,0,-0.34,2.45,9.48,13.0605492591858
,0,0.12,-0.05,-0.5,0.86,-0.05,0.13,-0.11,-0.36,2.25,9.6,0,0,0,-0.37,2.43,9.49,13.0766386985779
,0,0.12,-0.04,-0.5,0.86,-0.04,0.12,-0.11,-0.47,2.36,9.64,0,0,0,-0.39,2.43,9.49,13.0908942222595
,0,0.12,-0.04,-0.5,0.86,-0.02,0.11,-0.12,-0.46,2.3,9.79,0,0,0,-0.41,2.42,9.49,13.1094191074371
,0,0.12,-0.04,-0.5,0.86,-0.01,0.12,-0.11,-0.46,2.29,9.8,0,0,0,-0.43,2.42,9.49,13.1260626316071
,0,0.12,-0.04,-0.5,0.86,-0.01,0.1,-0.11,-0.76,2.08,9.76,0,0,0,-0.46,2.41,9.49,13.1407384872437
,0,0.12,-0.04,-0.5,0.86,-0.01,0.08,-0.09,-0.49,2.26,9.69,0,0,0,-0.47,2.41,9.49,13.1588344573975
,0,0.12,-0.04,-0.5,0.86,-0.01,0.06,-0.07,-0.71,2.19,9.73,0,0,0,-0.48,2.4,9.49,13.1761476993561
,0,0.12,-0.04,-0.5,0.86,-0.01,0.06,-0.07,-0.78,2.21,9.65,0,0,0,-0.5,2.4,9.49,13.1908438205719
,0,0.12,-0.04,-0.5,0.86,-0,0.05,-0.06,-0.95,2.25,9.86,0,0,0,-0.51,2.4,9.49,13.2077589035034
,0,0.12,-0.04,-0.5,0.86,0.01,0.01,-0.04,-0.62,2.21,9.7,0,0,0,-0.52,2.39,9.49,13.2249689102173
,0,0.12,-0.04,-0.5,0.86,0.01,0.03,-0.04,-0.29,2.28,9.7,0,0,0,-0.53,2.39,9.49,13.2397837638855
,0,0.12,-0.04,-0.5,0.86,0,0.04,-0.04,-0.68,2.25,9.64,0,0,0,-0.53,2.39,9.49,13.2575480937958
,0,0.12,-0.04,-0.5,0.86,0.01,0.03,-0.05,-0.79,2.14,9.88,0,0,0,-0.54,2.39,9.49,13.2747342586517
,0,0.12,-0.04,-0.5,0.85,0.01,0.02,-0.06,-0.13,2.14,9.59,0,0,0,-0.54,2.39,9.49,13.2896807193756
,0,0.12,-0.04,-0.5,0.85,0.02,0.01,-0.08,-0.52,2.14,9.68,0,0,0,-0.55,2.38,9.49,13.3067145347595
,0,0.12,-0.04,-0.5,0.85,0.02,0.01,-0.07,-0.63,2,9.73,0,0,0,-0.56,2.38,9.49,13.3250274658203
,0,0.12,-0.04,-0.51,0.85,-0.04,-0,-0.14,-0.7,2.54,9.64,0,0,0,-0.57,2.37,9.49,13.3400166034698
,0,0.12,-0.04,-0.51,0.85,-0.03,0.05,-0.11,-0.92,2.07,9.71,0,0,0,-0.57,2.37,9.49,13.3572030067444
,0,0.12,-0.04,-0.51,0.85,-0.07,0.02,-0.13,-0.53,2.18,9.65,0,0,0,-0.58,2.35,9.5,13.3753542900085
,0,0.12,-0.04,-0.51,0.85,-0.09,0.02,-0.15,-0.11,2.29,9.44,0,0,0,-0.59,2.34,9.5,13.3905618190765
,0,0.12,-0.03,-0.51,0.85,-0.13,0.04,-0.2,-0.69,2.4,9.45,0,0,0,-0.6,2.32,9.5,13.4088821411133
,0,0.12,-0.03,-0.51,0.85,-0.18,0.04,-0.26,-0.7,1.97,11.17,0,0,0,-0.62,2.29,9.51,13.4257912635803
,0,0.12,-0.03,-0.51,0.85,-0.25,0.07,-0.3,-0.38,2.89,9.43,0,0,0,-0.64,2.23,9.52,13.4411134719849
,0,0.11,-0.03,-0.51,0.85,-0.26,-0.02,-0.29,-0.67,1.96,9.34,0,0,0,-0.65,2.21,9.53,13.4599845409393
,0,0.11,-0.03,-0.52,0.85,-0.35,-0.08,-0.37,-0.18,2.46,9.87,0,0,0,-0.65,2.14,9.54,13.4762258529663
,0,0.11,-0.03,-0.52,0.85,-0.33,-0.01,-0.27,-0.53,2.45,10.19,0,0,0,-0.67,2.07,9.55,13.4910476207733
,0,0.11,-0.02,-0.52,0.85,-0.32,0.31,-0.14,0.11,2.24,9.98,0,0,0,-0.7,2.04,9.56,13.5105586051941
,0,0.11,-0.02,-0.52,0.85,-0.27,0.74,-0.33,-0.51,2.27,9.72,0,0,0,-0.83,1.99,9.56,13.5266089439392
,0,0.11,-0.01,-0.52,0.84,-0.24,0.97,-0.37,-0.82,2.13,9.81,0,0,0,-1.04,1.94,9.55,13.5413353443146
,0,0.11,-0,-0.53,0.84,-0.2,1.04,-0.38,-0.14,2.06,9.91,0,0,0,-1.14,1.92,9.54,13.5607435703278
,0,0.12,0.01,-0.53,0.84,-0.37,1.42,-0.29,0.45,2.28,9.92,0,0,0,-1.4,1.85,9.52,13.5768320560455
,0,0.13,0.03,-0.53,0.84,-0.39,1.66,-0.24,-0.16,2.59,10.32,0,0,0,-1.74,1.77,9.48,13.5920011997223
,0,0.13,0.05,-0.52,0.84,-0.42,2.34,-0.19,1.58,2.83,11.15,0,0,0,-1.95,1.73,9.45,13.6122393608093
,0,0.14,0.07,-0.52,0.84,-0.67,3.45,-0.38,-0.71,1.92,12.51,0,0,0,-2.54,1.61,9.33,13.6276023387909
,0,0.15,0.11,-0.52,0.83,-0.76,4.03,-0.53,-0.3,5.13,14.92,0,0,0,-3.32,1.42,9.11,13.6431653499603
,0,0.17,0.16,-0.52,0.82,-1.29,4.98,-1.03,-0.35,2.66,11.96,0,0,0,-3.77,1.27,8.95,13.6635930538177
,0,0.18,0.19,-0.52,0.81,-0.93,6.65,-1.06,-1.58,4.27,11.63,0,0,0,-4.85,1.01,8.46,13.6780567169189
,0,0.21,0.25,-0.52,0.79,-1.25,7.17,-1.96,-2.39,-0.37,21.41,0,0,0,-5.99,0.66,7.72,13.6941871643066
,0,0.22,0.31,-0.52,0.77,-1.32,6.78,-2.13,-13.52,-1.6,30.63,0,0,0,-6.85,0.24,7.01,13.7144937515259
,0,0.22,0.31,-0.52,0.76,0.34,1.46,-1.86,1.54,5.79,17.59,0,0,0,-6.95,0.14,6.91,13.7288219928741
,0,0.22,0.31,-0.53,0.75,0.21,-0.62,-1.31,3.27,6.05,8.16,0,0,0,-6.91,0,6.94,13.7439649105072
,0,0.21,0.31,-0.54,0.75,0.05,-0.88,-1.04,3.18,5.49,7.09,0,0,0,-6.79,-0.1,7.07,13.7641191482544
,0,0.21,0.3,-0.55,0.75,0.37,-1.08,-0.45,2.48,5.53,7.3,0,0,0,-6.71,-0.11,7.14,13.7788717746735
,0,0.21,0.29,-0.55,0.75,0.68,-1.4,0.2,1.91,4.73,7.7,0,0,0,-6.53,-0.02,7.31,13.7946035861969
,0,0.21,0.27,-0.55,0.76,0.73,-1.57,0.5,1.14,3.83,8.22,0,0,0,-6.29,0.16,7.51,13.8143107891083
,0,0.21,0.26,-0.55,0.77,0.8,-1.97,0.94,0.43,2.64,8.69,0,0,0,-6.14,0.27,7.63,13.8293581008911
,0,0.2,0.24,-0.55,0.77,0.88,-2.41,1.13,-0.79,1.5,9.03,0,0,0,-5.79,0.53,7.89,13.8454740047455
,0,0.2,0.21,-0.55,0.78,0.91,-2.59,1.13,-1.2,1.33,9.2,0,0,0,-5.35,0.79,8.17,13.8650529384613
,0,0.2,0.19,-0.55,0.79,0.95,-2.91,1.05,-1.87,1.53,9.28,0,0,0,-5.11,0.92,8.31,13.8794140815735
,0,0.19,0.16,-0.55,0.8,1,-3.12,0.99,-2.74,1.88,10.22,0,0,0,-4.59,1.18,8.58,13.8960890769958
,0,0.18,0.13,-0.55,0.81,1.06,-3.19,0.98,-3.03,2.37,10.59,0,0,0,-4.02,1.44,8.82,13.9151639938354
,0,0.18,0.11,-0.55,0.81,1.14,-3.27,1.08,-4.02,3.15,11.32,0,0,0,-3.72,1.58,8.92,13.9302535057068
,0,0.17,0.08,-0.54,0.82,1.17,-3.42,1.26,-3.98,2.91,11.57,0,0,0,-3.09,1.87,9.11,13.9465062618256
,0,0.16,0.04,-0.54,0.83,1.19,-3.45,1.33,-3.96,2.77,11.6,0,0,0,-2.43,2.15,9.25,13.9653027057648
,0,0.16,0.03,-0.54,0.83,1.13,-3.42,1.38,-4.59,3.17,12.12,0,0,0,-2.09,2.28,9.3,13.9802742004395
,0,0.15,-0.01,-0.53,0.83,0.99,-3.32,1.34,-5.21,3.44,12.27,0,0,0,-1.42,2.52,9.36,13.9964785575867
,0,0.14,-0.04,-0.52,0.84,0.89,-3.25,1.29,-5.94,3.2,12.5,0,0,0,-0.77,2.7,9.39,14.0153257846832
,0,0.13,-0.06,-0.52,0.84,0.81,-3.11,1.19,-6.62,3.05,11.92,0,0,0,-0.46,2.78,9.39,14.0301353931427
,0,0.13,-0.08,-0.52,0.84,0.93,-2.82,1.13,-7.54,3.18,10.4,0,0,0,0.12,2.95,9.35,14.0464210510254
,0,0.12,-0.11,-0.51,0.85,0.89,-2.59,1.13,-7.95,2.65,10.3,0,0,0,0.63,3.09,9.28,14.0656507015228
,0,0.12,-0.12,-0.51,0.85,0.74,-2.06,1.08,-9.22,1.11,11.22,0,0,0,0.85,3.15,9.24,14.0807650089264
,0,0.11,-0.14,-0.5,0.85,0.77,-1.65,0.9,-12.09,-0.03,13.33,0,0,0,1.22,3.27,9.16,14.0971591472626
,0,0.11,-0.16,-0.49,0.85,0.71,-1.57,0.8,-12.29,-1.24,12.33,0,0,0,1.55,3.38,9.07,14.1153879165649
,0,0.11,-0.17,-0.49,0.85,0.92,-1.49,0.61,-13.35,-2.25,6.18,0,0,0,1.7,3.45,9.01,14.1300196647644
,0,0.11,-0.18,-0.49,0.85,0.63,-0.87,0.34,-13.51,-2.44,4.11,0,0,0,1.91,3.56,8.93,14.146271944046
,0,0.11,-0.18,-0.49,0.85,0.28,-0.4,0.23,-13.91,-2.23,5.52,0,0,0,1.95,3.57,8.91,14.1659243106842
,0,0.11,-0.18,-0.48,0.85,-0.44,0.45,0.13,-12.55,3.71,-0.59,0,0,0,1.92,3.53,8.94,14.1804630756378
,0,0.1,-0.16,-0.48,0.85,-2.22,1.33,0.37,4.59,-1.74,10.66,0,0,0,1.72,3.18,9.11,14.1961431503296
,0,0.1,-0.15,-0.48,0.86,-1.02,1.22,0.29,4.69,-7.59,2.08,0,0,0,1.51,3.03,9.2,14.2153401374817
,0,0.1,-0.13,-0.48,0.86,-0.78,2.1,-0.41,0.37,-2.53,14.57,0,0,0,1.31,2.97,9.25,14.2301654815674
,0,0.11,-0.11,-0.49,0.86,-0.13,2.02,-0.6,-1.69,4.25,13.17,0,0,0,0.89,2.92,9.31,14.2459259033203
,0,0.12,-0.1,-0.49,0.86,-0.03,1.67,-0.49,-0.33,3.92,11.51,0,0,0,0.58,2.92,9.34,14.2654948234558
,0,0.12,-0.09,-0.49,0.86,-0.05,1.45,-0.31,-2.24,3.37,13.34,0,0,0,0.44,2.92,9.34,14.2798953056335
,0,0.13,-0.08,-0.49,0.86,-0.12,1.25,-0.11,-4.83,4.52,16.55,0,0,0,0.19,2.9,9.36,14.2957198619843
,0,0.13,-0.07,-0.49,0.86,-0.25,1.1,0.03,-1.32,4.46,11.43,0,0,0,0.04,2.84,9.38,14.31583070755
,0,0.13,-0.07,-0.49,0.86,-0.4,0.5,0.01,-0.13,2.54,10.27,0,0,0,0,2.81,9.39,14.3300194740295
,0,0.12,-0.07,-0.49,0.86,-0.37,0.37,-0.03,0.05,2.54,9.59,0,0,0,-0.06,2.75,9.41,14.3457221984863
,0,0.12,-0.06,-0.49,0.86,-0.27,0.22,-0.12,-0.01,2.51,9.93,0,0,0,-0.08,2.72,9.41,14.3655960559845
,0,0.12,-0.06,-0.49,0.86,-0.28,0.15,-0.14,-0.53,2.49,10.45,0,0,0,-0.12,2.67,9.43,14.3801193237305
,0,0.12,-0.06,-0.49,0.86,-0.26,0.12,-0.11,-0.45,2.34,10.27,0,0,0,-0.14,2.63,9.44,14.3954172134399
,0,0.12,-0.06,-0.49,0.86,-0.2,0.14,-0.08,-0.43,2.5,9.89,0,0,0,-0.15,2.61,9.45,14.4155387878418
,0,0.12,-0.06,-0.49,0.86,-0.17,0.08,-0.07,-0.65,2.33,9.95,0,0,0,-0.18,2.57,9.46,14.4301388263702
,0,0.12,-0.05,-0.49,0.86,-0.17,0.24,-0.11,-0.81,2.46,10.03,0,0,0,-0.24,2.54,9.46,14.4457337856293
,0,0.12,-0.05,-0.49,0.86,-0.19,0.29,-0.17,-1.22,2.44,9.67,0,0,0,-0.27,2.52,9.47,14.4658596515656
,0,0.12,-0.05,-0.49,0.86,-0.11,-0.02,-0.08,-0.76,2.42,9.83,0,0,0,-0.3,2.49,9.47,14.4803869724274
,0,0.12,-0.05,-0.5,0.86,-0.09,0,-0.07,-0.28,2.08,9.74,0,0,0,-0.31,2.47,9.48,14.4955809116364
,0,0.12,-0.05,-0.5,0.86,-0.1,0.05,-0.09,-0.42,2.14,9.89,0,0,0,-0.32,2.47,9.48,14.515775680542
,0,0.12,-0.05,-0.5,0.86,-0.07,0.03,-0.07,-0.28,2.1,9.75,0,0,0,-0.33,2.45,9.48,14.5303337574005
,0,0.12,-0.05,-0.5,0.86,-0.04,0.1,-0.06,0.36,2.29,9.31,0,0,0,-0.35,2.44,9.48,14.5461025238037
,0,0.12,-0.05,-0.5,0.86,-0.02,0,-0.04,-0.07,2.28,9.55,0,0,0,-0.35,2.44,9.49,14.5662655830383
,0,0.12,-0.05,-0.5,0.86,-0.02,0.05,-0.04,-0.06,2.3,9.76,0,0,0,-0.36,2.44,9.49,14.5810232162476
,0,0.12,-0.05,-0.5,0.86,-0.02,0.09,-0.05,-0.46,2.36,9.74,0,0,0,-0.38,2.43,9.49,14.5961532592773
,0,0.12,-0.04,-0.5,0.86,-0.02,0.07,-0.06,-0.24,2.31,9.5,0,0,0,-0.39,2.43,9.49,14.6160442829132
,0,0.12,-0.04,-0.5,0.86,-0.03,0.08,-0.07,-1,2.01,9.76,0,0,0,-0.4,2.43,9.49,14.6309401988983
,0,0.12,-0.04,-0.5,0.86,-0.03,0.08,-0.06,-0.6,2.02,9.61,0,0,0,-0.42,2.42,9.49,14.6466538906097
,0,0.12,-0.04,-0.5,0.86,-0.01,0.05,-0.06,-0.67,2.33,9.62,0,0,0,-0.43,2.42,9.49,14.6657431125641
,0,0.12,-0.04,-0.5,0.86,-0,0.07,-0.08,-0.77,2.25,9.69,0,0,0,-0.45,2.41,9.49,14.6804699897766
,0,0.12,-0.04,-0.5,0.86,0,0.05,-0.07,-0.57,2.2,9.71,0,0,0,-0.46,2.41,9.49,14.6955211162567
,0,0.12,-0.04,-0.5,0.86,0.01,0.07,-0.07,-0.14,2.14,9.63,0,0,0,-0.47,2.41,9.49,14.7161629199982
,0,0.12,-0.04,-0.5,0.86,0.03,0.08,-0.07,-0.37,2.3,9.81,0,0,0,-0.49,2.41,9.49,14.7306623458862
,0,0.12,-0.04,-0.5,0.86,0.04,0.04,-0.07,-0.71,2.18,9.71,0,0,0,-0.5,2.42,9.48,14.7458732128143
,0,0.12,-0.04,-0.5,0.86,0.04,0.03,-0.08,-0.43,2.27,9.69,0,0,0,-0.5,2.42,9.48,14.7660565376282
,0,0.12,-0.04,-0.5,0.86,0.04,0.02,-0.1,-0.32,2.09,9.54,0,0,0,-0.51,2.42,9.48,14.7804329395294
,0,0.12,-0.04,-0.5,0.85,0.03,0.03,-0.1,-0.73,1.99,9.8,0,0,0,-0.52,2.42,9.48,14.7956097126007
,0,0.12,-0.04,-0.5,0.85,0.03,0,-0.13,-0.67,2.17,9.71,0,0,0,-0.53,2.41,9.48,14.8156273365021
,0,0.12,-0.04,-0.51,0.85,-0.01,-0.01,-0.14,-0.61,2.2,9.75,0,0,0,-0.53,2.41,9.48,14.8308134078979
,0,0.12,-0.04,-0.51,0.85,-0.02,0.02,-0.15,-0.96,2.36,9.7,0,0,0,-0.55,2.4,9.48,14.845547914505
,0,0.12,-0.04,-0.51,0.85,-0.03,0.03,-0.14,-1,2.2,9.94,0,0,0,-0.56,2.4,9.49,14.866224527359
,0,0.12,-0.04,-0.51,0.85,-0.11,-0.03,-0.19,-0.6,2.02,9.75,0,0,0,-0.57,2.37,9.49,14.880407333374
,0,0.12,-0.04,-0.51,0.85,-0.16,-0.08,-0.25,-0.9,2.24,9.62,0,0,0,-0.57,2.33,9.5,14.8957707881927
,0,0.12,-0.04,-0.51,0.85,-0.25,-0.02,-0.32,-1.78,2.07,11.03,0,0,0,-0.57,2.31,9.51,14.9163761138916
,0,0.11,-0.04,-0.51,0.85,-0.27,-0.09,-0.27,-0.96,2.45,9.97,0,0,0,-0.56,2.26,9.52,14.9307146072388
,0,0.11,-0.03,-0.52,0.85,-0.29,-0.07,-0.33,0.15,2.55,10.15,0,0,0,-0.58,2.2,9.53,14.9463856220245
,0,0.11,-0.03,-0.52,0.85,-0.31,0.29,-0.23,0.21,2.75,9.84,0,0,0,-0.61,2.17,9.54,14.9666774272919
,0,0.11,-0.03,-0.52,0.85,-0.26,0.45,-0.32,-0.03,2.4,10.23,0,0,0,-0.7,2.12,9.54,14.9807803630829
,0,0.11,-0.02,-0.52,0.84,-0.22,0.54,-0.4,-0.5,2,9.79,0,0,0,-0.83,2.07,9.54,14.9960331916809
,0,0.12,-0.01,-0.53,0.84,-0.05,0.87,-0.39,-0.32,1.81,9.82,0,0,0,-0.92,2.07,9.54,15.0162477493286
,0,0.12,-0.01,-0.53,0.84,-0.01,0.95,-0.34,-0.24,2.2,9.65,0,0,0,-1.1,2.06,9.52,15.0307900905609
,0,0.13,0,-0.53,0.84,-0.05,1.07,-0.29,-0.9,2.06,9.49,0,0,0,-1.32,2.04,9.5,15.0466086864471
,0,0.13,0.02,-0.53,0.84,-0.11,1.35,-0.31,0.67,1.86,9.53,0,0,0,-1.45,2.02,9.48,15.0661292076111
,0,0.14,0.03,-0.53,0.84,-0.21,2.23,-0.35,1.6,2.44,9.83,0,0,0,-1.82,1.98,9.42,15.0809519290924
,0,0.15,0.05,-0.53,0.83,-0.2,2.9,-0.47,0.78,2.49,10.49,0,0,0,-2.43,1.91,9.3,15.0966835021973
,0,0.17,0.09,-0.53,0.83,-0.34,3.97,-0.7,-1.37,3.49,12.68,0,0,0,-2.8,1.87,9.21,15.11665558815
,0,0.18,0.11,-0.53,0.82,-0.83,5.02,-1.04,2.1,4.91,15.15,0,0,0,-3.66,1.69,8.93,15.1308298110962
,0,0.2,0.17,-0.52,0.81,-1.02,5.92,-1.19,1.19,3.06,11.89,0,0,0,-4.77,1.47,8.43,15.1466884613037
,0,0.24,0.24,-0.51,0.79,-0.43,7.73,-0.69,-0.56,5.22,11.4,0,0,0,-5.4,1.4,8.06,15.166925907135
,0,0.25,0.27,-0.51,0.78,-0.68,7.66,-1.58,-1.84,2.44,21.69,0,0,0,-6.59,1.16,7.15,15.1813552379608
,0,0.26,0.3,-0.51,0.76,-0.64,6.07,-1.79,-7.12,-0.42,31.88,0,0,0,-7.15,0.89,6.64,15.1965062618256
,0,0.26,0.3,-0.52,0.76,0.26,-0.35,-1.49,2.37,5.8,15.36,0,0,0,-7.14,0.81,6.66,15.2164559364319
,0,0.25,0.3,-0.53,0.75,-0.32,-1.38,-1.34,3.35,5.37,7.82,0,0,0,-7,0.59,6.83,15.2313556671143
,0,0.24,0.29,-0.54,0.75,-0.34,-1.48,-1.18,3.02,5.38,5.93,0,0,0,-6.81,0.42,7.04,15.2462496757507
,0,0.23,0.29,-0.54,0.75,0,-1.62,-0.64,2.72,6.66,6.13,0,0,0,-6.7,0.37,7.14,15.2664895057678
,0,0.22,0.27,-0.55,0.76,0.22,-1.83,0.11,1.01,6.01,7.45,0,0,0,-6.45,0.39,7.36,15.2811210155487
,0,0.22,0.25,-0.55,0.77,0.32,-2.04,0.45,0.63,5.35,7.59,0,0,0,-6.14,0.52,7.62,15.2967045307159
,0,0.21,0.24,-0.55,0.77,0.53,-2.44,0.93,-0.07,3.81,7.49,0,0,0,-5.95,0.61,7.76,15.3169283866882
,0,0.21,0.22,-0.55,0.78,0.72,-2.72,1.04,-1.05,1.65,7.71,0,0,0,-5.53,0.83,8.05,15.3313224315643
,0,0.2,0.19,-0.55,0.79,0.83,-2.83,0.99,-1.43,1.5,8.18,0,0,0,-5.05,1.06,8.33,15.3471736907959
,0,0.2,0.17,-0.55,0.79,0.96,-3.08,0.88,-2.6,2.1,10.32,0,0,0,-4.79,1.18,8.46,15.3665318489075
,0,0.19,0.14,-0.55,0.8,1.09,-3.36,0.87,-3.16,2.39,10.48,0,0,0,-4.22,1.44,8.73,15.3813092708588
,0,0.18,0.11,-0.55,0.81,1.14,-3.45,0.91,-3.36,2.74,10.31,0,0,0,-3.6,1.7,8.95,15.3968253135681
,0,0.18,0.09,-0.55,0.81,1.14,-3.45,1.08,-4.07,3.12,10.43,0,0,0,-3.29,1.84,9.05,15.416957616806
,0,0.17,0.05,-0.55,0.82,1.15,-3.5,1.26,-3.99,2.94,10.9,0,0,0,-2.62,2.11,9.2,15.4317920207977
,0,0.16,0.02,-0.54,0.83,1.11,-3.47,1.32,-3.81,2.8,11.31,0,0,0,-1.95,2.36,9.31,15.4464902877808
,0,0.15,0,-0.54,0.83,0.94,-3.39,1.33,-4.31,2.63,12.5,0,0,0,-1.61,2.47,9.35,15.46661901474
,0,0.14,-0.03,-0.53,0.83,0.79,-3.41,1.25,-6.31,3.64,14.1,0,0,0,-0.93,2.65,9.39,15.4817249774933
,0,0.13,-0.07,-0.53,0.84,0.77,-3.45,1.25,-6.58,3.91,13.22,0,0,0,-0.24,2.81,9.39,15.4966626167297
,0,0.12,-0.08,-0.52,0.84,0.78,-3.26,1.32,-7.4,3.48,11.53,0,0,0,0.08,2.88,9.37,15.5167136192322
,0,0.11,-0.11,-0.52,0.84,0.86,-2.88,1.34,-8.32,2.19,11.32,0,0,0,0.7,3.02,9.3,15.5318808555603
,0,0.11,-0.14,-0.51,0.84,0.91,-2.67,1.3,-8.67,1.47,10.68,0,0,0,1.23,3.16,9.19,15.5465035438538
,0,0.11,-0.15,-0.5,0.84,0.88,-2.06,1.1,-9.6,-0.47,8.04,0,0,0,1.45,3.22,9.14,15.567234992981
,0,0.1,-0.17,-0.5,0.85,0.72,-1.33,0.8,-10.57,-1.35,9.63,0,0,0,1.77,3.33,9.05,15.5818030834198
,0,0.1,-0.18,-0.49,0.85,0.71,-1.13,0.66,-11.71,-1.53,10.14,0,0,0,1.89,3.38,9,15.5971100330353
,0,0.1,-0.18,-0.49,0.85,0.34,-0.73,0.39,-12.12,-2.41,7.32,0,0,0,2.06,3.44,8.94,15.6166920661926
,0,0.1,-0.19,-0.49,0.85,-0.01,-0.05,0.07,-12.35,-2.62,6.78,0,0,0,2.11,3.45,8.93,15.6313488483429
,0,0.1,-0.18,-0.49,0.85,-0.2,0.25,-0.06,-12.03,-2.04,7.05,0,0,0,2.09,3.43,8.94,15.6469779014587
,0,0.1,-0.18,-0.49,0.85,-0.8,0.79,0.01,-10.44,1.27,6.6,0,0,0,1.97,3.33,9,15.6667861938477
,0,0.09,-0.16,-0.49,0.85,-1.45,1.19,0.17,7.25,0.68,8.97,0,0,0,1.79,3.05,9.14,15.6817405223846
,0,0.09,-0.14,-0.49,0.86,-0.89,1.45,0,5.19,-2.81,2.93,0,0,0,1.66,2.97,9.19,15.6972146034241
,0,0.1,-0.13,-0.49,0.86,-0.82,2.59,-0.5,-0.68,-2.56,17.93,0,0,0,1.21,2.84,9.3,15.7170128822327
,0,0.1,-0.11,-0.49,0.86,-0.18,1.99,-0.57,-2.28,2.76,15.11,0,0,0,0.78,2.79,9.36,15.7319889068604
,0,0.11,-0.09,-0.5,0.86,-0.07,1.72,-0.45,-1.14,3.37,12.34,0,0,0,0.62,2.79,9.38,15.7472105026245
,0,0.12,-0.08,-0.5,0.86,-0.21,1.67,-0.25,-1.09,3.59,13.91,0,0,0,0.3,2.76,9.4,15.7666292190552
,0,0.12,-0.07,-0.5,0.86,-0.21,1.46,-0.04,-1.09,2.98,16.66,0,0,0,0.03,2.73,9.41,15.7813651561737
,0,0.12,-0.07,-0.5,0.86,-0.18,0.81,-0.09,-1.24,4.59,10.37,0,0,0,-0.04,2.71,9.42,15.797012090683
,0,0.12,-0.06,-0.5,0.86,-0.18,0.38,-0.06,-1.37,2.21,11.71,0,0,0,-0.13,2.67,9.43,15.8167171478271
,0,0.12,-0.06,-0.5,0.86,-0.17,0.16,-0.06,-0.24,2.3,9.88,0,0,0,-0.17,2.65,9.43,15.8308837413788
,0,0.12,-0.06,-0.5,0.86,-0.14,0.12,-0.05,0.26,2.39,9.8,0,0,0,-0.18,2.63,9.44,15.8464019298553
,0,0.12,-0.06,-0.5,0.86,-0.12,0.06,-0.05,-0.23,2.02,9.81,0,0,0,-0.2,2.61,9.44,15.8666281700134
,0,0.12,-0.06,-0.5,0.86,-0.06,0.06,-0.06,-0.67,2.93,9.81,0,0,0,-0.22,2.6,9.45,15.8811933994293
,0,0.12,-0.06,-0.5,0.86,-0.06,0.05,-0.04,-0.66,2.26,10.28,0,0,0,-0.22,2.59,9.45,15.8964319229126
,0,0.12,-0.05,-0.5,0.86,-0.05,0.2,-0.11,-0.46,2.42,9.81,0,0,0,-0.26,2.58,9.45,15.914959192276
,0,0.12,-0.05,-0.5,0.86,-0.04,0.14,-0.05,-2.59,2.21,10.54,0,0,0,-0.3,2.57,9.45,15.9302980899811
,0,0.12,-0.05,-0.5,0.86,0.01,-0.14,-0.01,-0.58,2.39,9.65,0,0,0,-0.29,2.57,9.45,15.945013999939
,0,0.12,-0.05,-0.5,0.86,0,-0.07,-0.03,-1.31,2.71,9.86,0,0,0,-0.29,2.57,9.45,15.9609024524689
,0,0.12,-0.05,-0.5,0.86,-0.04,0.03,-0.08,-0.11,2.61,9.56,0,0,0,-0.31,2.56,9.45,15.9790027141571
,0,0.12,-0.05,-0.5,0.86,-0.07,0.06,-0.08,0.05,2.51,9.66,0,0,0,-0.31,2.55,9.46,15.993150472641
,0,0.12,-0.05,-0.5,0.86,-0.07,0.05,-0.07,0.24,2.51,9.69,0,0,0,-0.33,2.54,9.46,16.0092396736145
,0,0.12,-0.05,-0.5,0.86,-0.05,0.11,-0.08,-0.71,2.22,9.89,0,0,0,-0.34,2.54,9.46,16.0284330844879
,0,0.12,-0.05,-0.5,0.86,-0.03,0.08,-0.08,-0.46,2.35,9.59,0,0,0,-0.36,2.53,9.46,16.0429036617279
,0,0.12,-0.05,-0.5,0.86,-0.02,0.05,-0.1,-0.1,2.48,9.6,0,0,0,-0.37,2.52,9.46,16.05939412117
,0,0.12,-0.05,-0.5,0.85,-0.03,0.08,-0.08,-0.47,2.26,9.53,0,0,0,-0.38,2.52,9.46,16.0781216621399
,0,0.12,-0.05,-0.5,0.85,-0.01,0.09,-0.09,-0.93,2.34,9.75,0,0,0,-0.41,2.51,9.46,16.0927736759186
,0,0.12,-0.05,-0.5,0.85,-0.01,0.07,-0.08,-0.39,2.34,9.6,0,0,0,-0.42,2.51,9.46,16.109379529953
,0,0.12,-0.05,-0.5,0.85,0,0.07,-0.09,-0.74,2.17,9.74,0,0,0,-0.43,2.51,9.46,16.1284711360931
,0,0.12,-0.04,-0.5,0.85,0.01,0.11,-0.1,-0.96,2.25,10.05,0,0,0,-0.46,2.5,9.47,16.143315076828
,0,0.12,-0.04,-0.5,0.85,0.01,0.06,-0.1,-0.31,2.42,9.49,0,0,0,-0.49,2.49,9.47,16.1599061489105
,0,0.12,-0.04,-0.51,0.85,0.01,0.06,-0.09,-0.76,2.38,9.72,0,0,0,-0.5,2.49,9.47,16.1781063079834
,0,0.12,-0.04,-0.51,0.85,0,0.03,-0.08,-0.3,2.53,9.78,0,0,0,-0.51,2.49,9.47,16.1928944587708
,0,0.12,-0.04,-0.51,0.85,0,0.04,-0.09,-0.48,2.37,9.6,0,0,0,-0.52,2.49,9.47,16.2095038890839
,0,0.12,-0.04,-0.51,0.85,0.01,0.03,-0.08,-0.56,2.4,9.5,0,0,0,-0.52,2.49,9.47,16.227792263031
,0,0.12,-0.04,-0.51,0.85,0.01,0.03,-0.06,-0.25,2.27,9.5,0,0,0,-0.53,2.49,9.46,16.2427251338959
,0,0.12,-0.04,-0.51,0.85,0.02,0.04,-0.07,-0.67,2.33,9.7,0,0,0,-0.54,2.49,9.46,16.2598121166229
,0,0.12,-0.04,-0.51,0.85,0.01,0.03,-0.08,-0.53,2.25,9.58,0,0,0,-0.55,2.48,9.46,16.2786772251129
,0,0.12,-0.04,-0.51,0.85,-0.04,-0,-0.14,-0.81,2.24,9.72,0,0,0,-0.56,2.47,9.47,16.2932989597321
,0,0.12,-0.04,-0.51,0.85,-0.07,0.01,-0.15,-0.74,2.34,9.8,0,0,0,-0.57,2.46,9.47,16.3092036247253
,0,0.12,-0.04,-0.51,0.85,-0.06,-0.01,-0.14,-0.71,2.37,10.04,0,0,0,-0.57,2.45,9.47,16.3278603553772
,0,0.12,-0.04,-0.51,0.85,-0.06,0.02,-0.14,-0.5,2.26,9.68,0,0,0,-0.58,2.43,9.48,16.3426649570465
,0,0.12,-0.04,-0.51,0.85,-0.07,0.03,-0.14,-0.72,1.99,9.8,0,0,0,-0.59,2.41,9.48,16.3596909046173
,0,0.12,-0.04,-0.51,0.85,-0.17,-0.03,-0.25,0.03,1.68,9.29,0,0,0,-0.6,2.4,9.48,16.379034280777
,0,0.12,-0.04,-0.52,0.85,-0.23,0.01,-0.29,-1.29,2.44,9.55,0,0,0,-0.62,2.35,9.49,16.393298625946
,0,0.12,-0.03,-0.52,0.85,-0.29,-0.01,-0.29,-1.06,2.78,9.36,0,0,0,-0.63,2.29,9.51,16.4102289676666
,0,0.12,-0.03,-0.52,0.84,-0.32,-0.02,-0.34,-0.44,2.42,9.74,0,0,0,-0.63,2.26,9.52,16.429803609848
,0,0.11,-0.03,-0.52,0.84,-0.37,0.12,-0.32,0.14,2.76,9.72,0,0,0,-0.66,2.19,9.53,16.4443066120148
,0,0.11,-0.03,-0.53,0.84,-0.35,0.3,-0.33,-0.86,2.43,10.19,0,0,0,-0.74,2.12,9.54,16.4613873958588
,0,0.11,-0.02,-0.53,0.84,-0.31,0.55,-0.35,-1.1,2.49,9.99,0,0,0,-0.79,2.09,9.54,16.479348897934
,0,0.11,-0.02,-0.53,0.84,-0.22,0.87,-0.42,-0.46,2.25,10.04,0,0,0,-0.94,2.04,9.54,16.4941606521606
,0,0.12,-0.01,-0.53,0.84,-0.16,1.1,-0.38,0,2.23,9.56,0,0,0,-1.14,2.01,9.52,16.5113186836243
,0,0.12,0.01,-0.53,0.84,-0.18,1.15,-0.31,0.33,2.15,9.95,0,0,0,-1.25,1.99,9.51,16.5297513008118
,0,0.13,0.01,-0.53,0.84,-0.35,1.68,-0.26,0.87,2.22,9.83,0,0,0,-1.54,1.92,9.48,16.5438380241394
,0,0.13,0.04,-0.53,0.83,-0.39,2.05,-0.3,0.58,2.96,10.22,0,0,0,-1.98,1.84,9.42,16.5616693496704
,0,0.15,0.07,-0.53,0.83,-0.5,3.28,-0.63,-0.54,2.87,12.27,0,0,0,-2.29,1.78,9.36,16.5798947811127
,0,0.16,0.09,-0.53,0.83,-0.71,4.45,-0.85,-1.57,2.6,13.78,0,0,0,-3.06,1.62,9.17,16.5941431522369
,0,0.18,0.14,-0.53,0.82,-1,5.01,-1.14,2.96,4.85,14.45,0,0,0,-4.04,1.36,8.82,16.6119787693024
,0,0.21,0.2,-0.52,0.8,-0.64,6.97,-0.43,-2.21,3.49,10.92,0,0,0,-4.64,1.29,8.54,16.62970495224
,0,0.22,0.23,-0.52,0.79,-1.15,7.29,-1.49,-3.27,3.19,15.15,0,0,0,-5.82,1.02,7.81,16.6442635059357
,0,0.23,0.28,-0.52,0.77,-1.3,6.83,-1.58,-1.29,-0.16,24.82,0,0,0,-6.67,0.67,7.15,16.6624677181244
,0,0.23,0.29,-0.53,0.76,0.21,1.02,-1.59,2.29,7.43,14.96,0,0,0,-6.75,0.58,7.08,16.6803574562073
,0,0.23,0.29,-0.53,0.76,-0.27,-0.45,-1.1,3.62,8.02,10.86,0,0,0,-6.74,0.4,7.11,16.6943879127502
,0,0.22,0.29,-0.54,0.76,-0.35,-0.7,-0.8,3.3,7.41,9.92,0,0,0,-6.63,0.28,7.21,16.7123534679413
,0,0.22,0.28,-0.54,0.76,-0.04,-1.14,-0.11,2.68,6.58,8.11,0,0,0,-6.55,0.27,7.28,16.7301464080811
,0,0.21,0.27,-0.54,0.77,0.22,-1.49,0.46,2.03,4.74,7,0,0,0,-6.34,0.34,7.46,16.7446846961975
,0,0.21,0.26,-0.54,0.77,0.32,-1.6,0.63,1.43,3.43,7.09,0,0,0,-6.1,0.47,7.66,16.7624781131744
,0,0.2,0.24,-0.54,0.78,0.49,-1.92,0.81,0.6,2.96,8.41,0,0,0,-5.95,0.56,7.77,16.779922246933
,0,0.2,0.22,-0.54,0.79,0.64,-2.4,0.91,-0.57,2.62,8.6,0,0,0,-5.59,0.75,8.01,16.7945263385773
,0,0.2,0.2,-0.54,0.8,0.71,-2.59,0.95,-0.86,2.69,8.3,0,0,0,-5.15,0.96,8.28,16.8124756813049
,0,0.19,0.17,-0.54,0.8,0.76,-2.83,1.03,-1.58,2.55,8.36,0,0,0,-4.91,1.07,8.41,16.8304393291473
,0,0.19,0.16,-0.54,0.81,0.85,-2.99,1.08,-2.45,1.98,9.96,0,0,0,-4.4,1.31,8.66,16.845335483551
,0,0.18,0.12,-0.53,0.82,0.93,-3.09,1.1,-2.66,1.87,9.93,0,0,0,-3.84,1.56,8.88,16.8636498451233
,0,0.17,0.09,-0.53,0.82,1,-3.12,1.12,-3.54,2.02,10.5,0,0,0,-3.26,1.81,9.06,16.8807203769684
,0,0.17,0.08,-0.53,0.83,0.99,-3.22,1.17,-3.57,2.45,10.45,0,0,0,-2.96,1.93,9.14,16.8958296775818
,0,0.16,0.04,-0.52,0.84,0.97,-3.22,1.2,-3.76,2.76,11.2,0,0,0,-2.34,2.16,9.27,16.9143047332764
,0,0.15,0.01,-0.52,0.84,0.85,-3.18,1.25,-3.75,2.41,11.4,0,0,0,-1.71,2.36,9.36,16.9310717582703
,0,0.15,-0,-0.52,0.84,0.86,-3.14,1.11,-4.53,2.71,12.63,0,0,0,-1.4,2.46,9.38,16.9462504386902
,0,0.14,-0.04,-0.51,0.85,0.91,-3.14,1.05,-5.31,3.65,12.63,0,0,0,-0.78,2.65,9.4,16.9647574424744
,0,0.13,-0.07,-0.51,0.85,0.96,-3.13,1.05,-5.64,3.66,12.05,0,0,0,-0.16,2.83,9.38,16.9814598560333
,0,0.13,-0.08,-0.51,0.85,0.82,-2.85,1.09,-6.57,2.69,10.68,0,0,0,0.12,2.91,9.36,16.9963028430939
,0,0.12,-0.11,-0.5,0.85,0.69,-2.67,1.05,-7,1.12,10.11,0,0,0,0.64,3.02,9.3,17.0149772167206
,0,0.11,-0.13,-0.49,0.85,0.66,-2.21,0.86,-7.63,0.86,10.63,0,0,0,1.06,3.12,9.23,17.031822681427
,0,0.11,-0.14,-0.49,0.85,0.66,-1.79,0.66,-8.71,0.71,12.3,0,0,0,1.24,3.18,9.19,17.046722650528
,0,0.11,-0.16,-0.49,0.85,0.73,-1.67,0.59,-10.52,-0.05,11.56,0,0,0,1.57,3.3,9.09,17.0653865337372
,0,0.11,-0.17,-0.48,0.85,0.97,-1.62,0.56,-10.98,-0.21,9.65,0,0,0,1.87,3.45,8.98,17.082008600235
,0,0.11,-0.18,-0.48,0.85,0.63,-1.09,0.44,-12.18,-1.56,6.72,0,0,0,1.98,3.49,8.94,17.0971341133118
,0,0.11,-0.19,-0.48,0.85,0.51,-0.75,0.31,-12.77,-2.5,5.68,0,0,0,2.1,3.56,8.89,17.116030216217
,0,0.11,-0.19,-0.48,0.85,0.13,-0.05,0.01,-12.41,-2.54,5.46,0,0,0,2.07,3.56,8.89,17.1321320533752
,0,0.11,-0.18,-0.48,0.85,-0.74,0.81,-0.06,-9.44,4.92,-0.16,0,0,0,2,3.5,8.93,17.1473953723907
,0,0.1,-0.16,-0.48,0.86,-2.27,1.44,0.15,6.9,0.06,15.47,0,0,0,1.75,3.14,9.12,17.1659343242645
,0,0.1,-0.14,-0.48,0.86,-0.81,1.49,0.01,4.33,-6.33,1.76,0,0,0,1.43,3,9.22,17.182804107666
,0,0.1,-0.13,-0.48,0.86,-0.91,2.63,-0.61,0,-1.55,14.8,0,0,0,1.17,2.93,9.28,17.1977906227112
,0,0.11,-0.1,-0.49,0.86,-0.54,2.6,-0.68,-2.23,4.63,14.62,0,0,0,0.7,2.86,9.35,17.2159426212311
,0,0.12,-0.09,-0.49,0.86,-0.25,1.93,-0.42,-0.99,3.56,12.17,0,0,0,0.34,2.81,9.38,17.2332031726837
,0,0.12,-0.08,-0.49,0.86,-0.43,1.83,-0.16,0.17,3.27,15.65,0,0,0,0.17,2.77,9.4,17.2483198642731
,0,0.12,-0.07,-0.49,0.86,-0.43,1.81,-0.15,1.66,4.19,8.48,0,0,0,-0.06,2.7,9.42,17.2665247917175
,0,0.12,-0.06,-0.49,0.86,-0.53,0.66,-0.08,-2.38,1.82,13.45,0,0,0,-0.17,2.61,9.44,17.2827384471893
,0,0.12,-0.06,-0.49,0.86,-0.41,0.36,-0.1,-0.08,2.53,10.04,0,0,0,-0.2,2.58,9.45,17.2982881069183
,0,0.12,-0.05,-0.49,0.86,-0.41,0.2,-0.17,0.59,2.12,9.7,0,0,0,-0.25,2.51,9.47,17.3164174556732
,0,0.12,-0.05,-0.49,0.86,-0.28,0.26,-0.2,-0.73,2.52,10.03,0,0,0,-0.3,2.46,9.48,17.3333728313446
,0,0.12,-0.05,-0.49,0.86,-0.16,0.21,-0.18,-0.67,2.51,10.21,0,0,0,-0.33,2.44,9.49,17.3482310771942
,0,0.12,-0.05,-0.49,0.86,-0.13,0.15,-0.15,-0.66,1.84,9.87,0,0,0,-0.36,2.42,9.49,17.366856098175
,0,0.12,-0.04,-0.49,0.86,-0.07,0.11,-0.11,-1.4,2.08,10.04,0,0,0,-0.38,2.41,9.49,17.3828618526459
,0,0.12,-0.04,-0.49,0.86,-0.02,0.03,-0.06,-0.39,2.32,9.78,0,0,0,-0.38,2.41,9.49,17.3977308273315
,0,0.12,-0.04,-0.49,0.86,-0.02,0.2,-0.06,-2.03,1.89,10.49,0,0,0,-0.43,2.4,9.49,17.4166967868805
,0,0.12,-0.04,-0.49,0.86,0.04,-0.07,-0.03,-0.62,2.19,9.46,0,0,0,-0.42,2.41,9.49,17.4327566623688
,0,0.12,-0.04,-0.49,0.86,0.03,0.04,-0.06,-0.17,2.64,9.91,0,0,0,-0.43,2.41,9.49,17.4479322433472
,0,0.12,-0.04,-0.49,0.86,0.04,-0.01,-0.06,-0.39,2.36,9.89,0,0,0,-0.43,2.42,9.49,17.46621966362
,0,0.12,-0.04,-0.5,0.86,0.02,0.03,-0.06,-0.24,2.33,9.66,0,0,0,-0.44,2.42,9.49,17.4829742908478
,0,0.12,-0.04,-0.5,0.86,0.02,0.05,-0.05,-0.45,2.37,9.61,0,0,0,-0.45,2.42,9.49,17.4981694221497
,0,0.12,-0.04,-0.5,0.86,0.02,0.04,-0.06,-0.51,2.32,9.48,0,0,0,-0.46,2.42,9.49,17.5168342590332
,0,0.12,-0.04,-0.5,0.86,0.01,0.04,-0.05,-0.65,2.15,9.69,0,0,0,-0.47,2.43,9.48,17.5330541133881
,0,0.12,-0.04,-0.5,0.86,0.02,0.03,-0.04,-0.98,2.2,9.83,0,0,0,-0.47,2.43,9.48,17.5484299659729
,0,0.12,-0.04,-0.5,0.86,0.02,0.02,-0.03,-0.99,2.17,9.62,0,0,0,-0.47,2.43,9.48,17.567485332489
,0,0.12,-0.04,-0.5,0.86,0.01,0.01,-0.03,-0.53,2.31,9.71,0,0,0,-0.47,2.43,9.48,17.5838408470154
,0,0.12,-0.04,-0.5,0.86,0.03,-0.01,-0.03,-0.58,2.23,9.74,0,0,0,-0.47,2.43,9.48,17.5988192558289
,0,0.12,-0.04,-0.5,0.86,0.03,-0.01,-0.03,-0.86,2.21,9.73,0,0,0,-0.47,2.44,9.48,17.6176075935364
,0,0.12,-0.04,-0.5,0.86,0.03,0.01,-0.02,-0.39,2.34,9.68,0,0,0,-0.48,2.44,9.48,17.63405418396
,0,0.12,-0.04,-0.5,0.86,0.03,-0.01,-0.02,-0.49,2.35,9.69,0,0,0,-0.48,2.44,9.48,17.6491274833679
,0,0.12,-0.04,-0.5,0.86,0.04,-0.04,-0.03,-0.02,2.43,9.42,0,0,0,-0.47,2.45,9.48,17.6671209335327
,0,0.12,-0.04,-0.5,0.86,0.04,0.02,-0.03,-0.86,2.15,9.79,0,0,0,-0.48,2.45,9.48,17.6840162277222
,0,0.12,-0.04,-0.5,0.86,0.04,0.02,-0.04,-0.42,2.36,9.71,0,0,0,-0.48,2.46,9.48,17.6990067958832
,0,0.12,-0.04,-0.5,0.86,0.04,0.02,-0.06,-0.05,2.35,9.53,0,0,0,-0.49,2.46,9.47,17.7178184986115
,0,0.12,-0.04,-0.5,0.86,0.04,0.03,-0.06,-0.65,2.34,9.74,0,0,0,-0.49,2.46,9.47,17.7336752414703
,0,0.12,-0.04,-0.5,0.86,0.03,0.05,-0.08,-0.78,2.26,9.62,0,0,0,-0.5,2.47,9.47,17.7488350868225
,0,0.12,-0.04,-0.5,0.86,0.03,0.04,-0.08,-0.75,2.27,9.59,0,0,0,-0.51,2.47,9.47,17.7675950527191
,0,0.12,-0.04,-0.5,0.86,0.02,0.03,-0.1,-0.8,2.36,9.88,0,0,0,-0.52,2.47,9.47,17.7846195697784
,0,0.12,-0.04,-0.5,0.86,0.01,0.04,-0.1,-0.71,2.34,9.77,0,0,0,-0.53,2.47,9.47,17.7989704608917
,0,0.12,-0.04,-0.5,0.85,-0,0.03,-0.13,-1.08,2.11,9.71,0,0,0,-0.55,2.46,9.47,17.817791223526
,0,0.12,-0.04,-0.5,0.85,-0.06,0.02,-0.2,-1.25,2.25,9.74,0,0,0,-0.56,2.44,9.47,17.8348028659821
,0,0.12,-0.04,-0.51,0.85,-0.08,0.03,-0.18,-0.73,1.59,8.53,0,0,0,-0.57,2.43,9.48,17.8498392105103
,0,0.12,-0.04,-0.51,0.85,-0.09,0.07,-0.16,-1.08,1.84,10.49,0,0,0,-0.59,2.41,9.48,17.868314743042
,0,0.12,-0.04,-0.51,0.85,-0.17,-0.05,-0.24,-0.52,3.35,9.33,0,0,0,-0.6,2.38,9.49,17.8847095966339
,0,0.12,-0.04,-0.51,0.85,-0.2,-0.01,-0.27,-0.07,2.36,9.93,0,0,0,-0.6,2.36,9.49,17.8994512557983
,0,0.12,-0.03,-0.51,0.85,-0.27,0,-0.29,-0.49,2.86,9.99,0,0,0,-0.61,2.3,9.51,17.9183456897736
,0,0.12,-0.03,-0.51,0.85,-0.26,0.03,-0.26,-0.94,2.5,9.86,0,0,0,-0.62,2.25,9.52,17.9349422454834
,0,0.11,-0.03,-0.52,0.85,-0.35,0.02,-0.37,-0.51,2.68,9.77,0,0,0,-0.63,2.21,9.53,17.9501090049744
,0,0.11,-0.03,-0.52,0.85,-0.33,0.06,-0.33,-0.92,2.05,9.81,0,0,0,-0.68,2.15,9.54,17.9684362411499
,0,0.11,-0.02,-0.52,0.85,-0.34,0.5,-0.27,-0.68,2.47,9.74,0,0,0,-0.8,2.09,9.54,17.9850614070892
,0,0.11,-0.02,-0.52,0.85,-0.23,0.92,-0.28,0,1.62,9.85,0,0,0,-0.89,2.06,9.54,17.9998438358307
,0,0.12,-0.01,-0.52,0.84,-0.23,1.11,-0.42,-0.22,1.75,9.94,0,0,0,-1.1,2.02,9.53,18.018061876297
,0,0.12,0,-0.52,0.84,-0.08,1.14,-0.36,0.27,2.03,9.93,0,0,0,-1.34,2,9.5,18.0351476669312
,0,0.13,0.01,-0.52,0.84,-0.16,1.5,-0.28,1.15,2.42,9.87,0,0,0,-1.48,1.98,9.48,18.0502984523773
,0,0.14,0.03,-0.53,0.84,-0.21,1.83,-0.31,1.51,2.82,10.6,0,0,0,-1.88,1.92,9.42,18.0682315826416
,0,0.15,0.06,-0.53,0.84,-0.27,2.92,-0.6,0.04,2.78,11.34,0,0,0,-2.48,1.84,9.3,18.0846674442291
,0,0.16,0.08,-0.53,0.83,-0.46,4.01,-0.88,-1.62,3.18,12.99,0,0,0,-2.86,1.77,9.2,18.1000986099243
,0,0.18,0.12,-0.53,0.82,-0.55,4.48,-1.06,2.46,4.56,13.53,0,0,0,-3.74,1.58,8.92,18.1186900138855
,0,0.2,0.18,-0.52,0.81,-0.54,6.09,-0.97,1.73,5.99,11.66,0,0,0,-4.87,1.45,8.38,18.1358637809753
,0,0.22,0.21,-0.52,0.8,-0.64,7.34,-1.2,-3.32,4.84,18.64,0,0,0,-5.47,1.34,8.02,18.1507036685944
,0,0.24,0.26,-0.52,0.78,-1.08,6.76,-1.64,-11.88,3.79,29.59,0,0,0,-6.37,1.01,7.38,18.1688468456268
,0,0.24,0.27,-0.53,0.77,-0.02,1.56,-1.64,1.65,5.57,19.57,0,0,0,-6.52,0.82,7.27,18.1857669353485
,0,0.23,0.27,-0.53,0.77,-0.18,-0.36,-1.19,3.37,7.34,10.25,0,0,0,-6.51,0.73,7.29,18.2010474205017
,0,0.23,0.27,-0.54,0.77,-0.35,-0.67,-0.93,3.34,6.18,8.1,0,0,0,-6.41,0.58,7.39,18.2190368175507
,0,0.22,0.26,-0.54,0.77,-0.15,-1.05,-0.39,3.24,5.81,7.08,0,0,0,-6.25,0.54,7.53,18.2352941036224
,0,0.22,0.26,-0.54,0.77,0.1,-1.3,0.13,2.48,5,6.39,0,0,0,-6.15,0.56,7.61,18.2508461475372
,0,0.21,0.24,-0.54,0.78,0.19,-1.45,0.35,1.62,3.56,6.61,0,0,0,-5.92,0.64,7.78,18.2687270641327
,0,0.21,0.22,-0.54,0.78,0.34,-1.71,0.63,1.26,3.21,7.17,0,0,0,-5.64,0.77,7.97,18.2855684757233
,0,0.2,0.22,-0.54,0.79,0.51,-2.06,0.76,0,2.73,8.8,0,0,0,-5.48,0.85,8.08,18.3003826141357
,0,0.2,0.19,-0.54,0.79,0.57,-2.31,0.79,-0.65,2.63,8.29,0,0,0,-5.08,1.03,8.32,18.3186128139496
,0,0.19,0.17,-0.54,0.8,0.68,-2.67,0.81,-0.91,2.68,8.12,0,0,0,-4.61,1.22,8.56,18.3356182575226
,0,0.19,0.15,-0.54,0.81,0.79,-2.83,0.85,-1.69,2.61,8.67,0,0,0,-4.37,1.33,8.67,18.3507692813873
,0,0.18,0.12,-0.54,0.81,0.87,-2.89,0.88,-2.24,2.45,9.48,0,0,0,-3.85,1.55,8.88,18.3688566684723
,0,0.17,0.09,-0.54,0.82,1.04,-2.97,0.94,-2.2,2.53,10.18,0,0,0,-3.31,1.8,9.05,18.3860187530518
,0,0.17,0.08,-0.54,0.82,1.12,-3.05,0.97,-3.23,2.25,11.4,0,0,0,-3.02,1.93,9.12,18.4007344245911
,0,0.16,0.04,-0.54,0.83,1.18,-3.16,0.95,-3.63,2.33,11.49,0,0,0,-2.41,2.19,9.24,18.4189193248749
,0,0.16,0.01,-0.53,0.83,1.19,-3.21,0.92,-3.89,2.48,11.65,0,0,0,-1.8,2.44,9.32,18.4361071586609
,0,0.15,-0.01,-0.53,0.83,1.02,-3.16,0.85,-4.58,2.55,12.66,0,0,0,-1.49,2.54,9.35,18.4507460594177
,0,0.14,-0.04,-0.53,0.83,0.99,-3.16,0.81,-5.47,3.47,12.16,0,0,0,-0.88,2.74,9.37,18.4693684577942
,0,0.14,-0.07,-0.53,0.84,0.99,-3.11,0.89,-5.54,3.62,11.36,0,0,0,-0.27,2.93,9.35,18.486293554306
,0,0.13,-0.08,-0.52,0.84,0.91,-2.78,1.09,-5.94,3.32,10.05,0,0,0,0,3.01,9.33,18.5009412765503
,0,0.13,-0.11,-0.52,0.84,0.86,-2.54,1.18,-6.56,2.63,10.41,0,0,0,0.51,3.15,9.26,18.5188219547272
,0,0.12,-0.13,-0.51,0.84,0.7,-2.03,1.27,-7.03,2.46,11.27,0,0,0,0.93,3.25,9.2,18.5362682342529
,0,0.12,-0.14,-0.5,0.84,0.5,-1.8,1.23,-9.53,1.62,13.34,0,0,0,1.13,3.28,9.16,18.5517239570618
,0,0.11,-0.15,-0.5,0.85,0.3,-1.76,1.17,-11.29,-1.87,8.86,0,0,0,1.51,3.31,9.1,18.5696449279785
,0,0.1,-0.17,-0.49,0.85,0.43,-1.49,0.88,-11.84,-2.05,7.7,0,0,0,1.79,3.36,9.03,18.586140871048
,0,0.1,-0.17,-0.49,0.85,0.34,-0.85,0.49,-13.17,-2.68,7.34,0,0,0,1.88,3.38,9,18.6016054153442
,0,0.1,-0.18,-0.49,0.85,0.27,-0.54,0.35,-15.26,-1.36,-1.71,0,0,0,1.96,3.38,8.99,18.6196355819702
,0,0.09,-0.16,-0.49,0.85,-1.46,0.77,0.14,-19.08,-8.14,-0.8,0,0,0,1.74,3.07,9.14,18.6364896297455
,0,0.09,-0.14,-0.49,0.86,-1.58,2.24,0.07,3.4,-5.14,24.47,0,0,0,1.55,2.93,9.22,18.6519041061401
,0,0.1,-0.13,-0.49,0.86,-0.68,1.69,-0.21,2.84,0.22,3.16,0,0,0,1.22,2.84,9.3,18.6690673828125
,0,0.11,-0.1,-0.49,0.86,-0.53,2.41,-0.72,1.05,6.08,7.89,0,0,0,0.73,2.78,9.37,18.6866459846497
,0,0.11,-0.09,-0.49,0.86,-0.25,2.33,-0.28,-0.65,1.94,13.91,0,0,0,0.51,2.76,9.39,18.701696395874
,0,0.12,-0.08,-0.49,0.86,-0.35,2.12,-0.23,1.83,-0.19,18.62,0,0,0,0.13,2.72,9.42,18.7194013595581
,0,0.12,-0.06,-0.49,0.86,0.02,1.9,-0.29,-4.57,5.93,10.93,0,0,0,-0.1,2.71,9.42,18.7367870807648
,0,0.12,-0.06,-0.49,0.86,-0.3,0.57,-0.06,-1.73,1.67,12.41,0,0,0,-0.16,2.68,9.43,18.7522089481354
,0,0.12,-0.06,-0.49,0.86,-0.29,0.4,-0.04,-0.01,2.43,9.55,0,0,0,-0.22,2.62,9.44,18.7696621417999
,0,0.12,-0.05,-0.49,0.86,-0.37,0.19,-0.05,0.2,2.47,10.03,0,0,0,-0.26,2.55,9.46,18.7873446941376
,0,0.12,-0.05,-0.49,0.86,-0.29,0.23,-0.28,-0.41,2.95,9.46,0,0,0,-0.29,2.53,9.46,18.8019659519196
,0,0.12,-0.05,-0.5,0.86,-0.25,0.24,-0.18,-1.05,2.13,10.09,0,0,0,-0.34,2.49,9.47,18.819438457489
,0,0.12,-0.05,-0.5,0.86,-0.17,0.19,-0.19,-0.45,2.48,10,0,0,0,-0.36,2.47,9.48,18.8371450901031
,0,0.12,-0.05,-0.5,0.86,-0.15,0.15,-0.15,-0.87,2.08,9.56,0,0,0,-0.4,2.44,9.48,18.8531928062439
,0,0.12,-0.04,-0.5,0.86,-0.13,0.11,-0.11,-0.9,2.27,9.87,0,0,0,-0.42,2.42,9.49,18.8702981472015
,0,0.12,-0.04,-0.5,0.86,-0.11,0.07,-0.07,-0.85,2.37,9.95,0,0,0,-0.43,2.41,9.49,18.8870534896851
,0,0.12,-0.04,-0.5,0.86,-0.1,0.07,-0.09,-1.04,2.28,9.89,0,0,0,-0.45,2.38,9.5,18.9025762081146
,0,0.12,-0.04,-0.5,0.86,-0.08,0.13,-0.08,-0.65,2.12,10.06,0,0,0,-0.5,2.36,9.5,18.9200134277344
,0,0.12,-0.04,-0.5,0.86,-0,-0.02,-0.07,-0.29,2.15,9.45,0,0,0,-0.5,2.36,9.5,18.9371290206909
,0,0.12,-0.04,-0.5,0.86,0,0.11,-0.09,-0.66,2.3,9.72,0,0,0,-0.53,2.36,9.5,18.9526762962341
,0,0.12,-0.04,-0.5,0.86,-0.02,0.11,-0.1,-0.98,2.05,9.96,0,0,0,-0.55,2.35,9.5,18.9699158668518
,0,0.12,-0.04,-0.5,0.86,-0,0.04,-0.07,-0.52,2.26,9.71,0,0,0,-0.56,2.35,9.5,18.9871871471405
,0,0.12,-0.04,-0.5,0.86,0.01,0.02,-0.06,-0.15,2.24,9.61,0,0,0,-0.57,2.34,9.5,19.002984046936
,0,0.12,-0.04,-0.5,0.86,0.01,0.03,-0.06,-0.34,2.26,9.72,0,0,0,-0.58,2.35,9.5,19.0203874111176
,0,0.12,-0.04,-0.5,0.86,0.03,0.05,-0.05,-0.44,2.24,9.49,0,0,0,-0.58,2.35,9.5,19.0374619960785
,0,0.12,-0.03,-0.5,0.85,0.03,0.05,-0.04,-0.42,2.25,9.61,0,0,0,-0.59,2.35,9.5,19.0532925128937
,0,0.12,-0.03,-0.5,0.85,0.03,0.03,-0.04,-0.79,2.14,9.71,0,0,0,-0.6,2.35,9.49,19.0702946186066
,0,0.12,-0.03,-0.5,0.85,0.04,0.02,-0.03,-0.84,2.09,9.54,0,0,0,-0.6,2.36,9.49,19.0884544849396
,0,0.12,-0.03,-0.5,0.85,0.04,-0,-0.05,-1.01,2.05,9.75,0,0,0,-0.61,2.36,9.49,19.1038746833801
,0,0.12,-0.03,-0.5,0.85,0.04,0.02,-0.04,-0.7,2.25,9.66,0,0,0,-0.62,2.37,9.49,19.1204853057861
,0,0.12,-0.03,-0.5,0.85,0.05,0.02,-0.03,-0.95,2.27,9.75,0,0,0,-0.62,2.37,9.49,19.1374382972717
,0,0.12,-0.03,-0.5,0.85,0.05,-0,-0.04,-0.83,2.27,9.8,0,0,0,-0.63,2.38,9.49,19.1535260677338
,0,0.12,-0.03,-0.51,0.85,0.05,-0,-0.05,-0.71,2.35,9.75,0,0,0,-0.63,2.38,9.48,19.1700823307037
,0,0.12,-0.03,-0.51,0.85,0.04,0.01,-0.04,-0.42,2.35,9.66,0,0,0,-0.63,2.39,9.48,19.1877996921539
,0,0.12,-0.03,-0.51,0.85,0.03,0.01,-0.04,-0.6,2.36,9.75,0,0,0,-0.63,2.39,9.48,19.202442407608
,0,0.12,-0.03,-0.51,0.85,0.04,-0.01,-0.05,-0.46,2.36,9.75,0,0,0,-0.63,2.4,9.48,19.2201750278473
,0,0.12,-0.03,-0.51,0.85,0.03,0,-0.07,-0.59,2.09,9.73,0,0,0,-0.63,2.4,9.48,19.237428188324
,0,0.12,-0.03,-0.51,0.85,0,0.01,-0.09,-0.93,2,10.03,0,0,0,-0.64,2.4,9.48,19.2518615722656
,0,0.12,-0.03,-0.51,0.85,-0.04,-0.02,-0.11,-0.24,1.6,9.59,0,0,0,-0.64,2.38,9.48,19.2702720165253
,0,0.12,-0.03,-0.51,0.85,-0.03,-0.01,-0.12,-1.03,2.03,9.81,0,0,0,-0.64,2.38,9.49,19.2881464958191
,0,0.12,-0.03,-0.51,0.85,-0.07,-0.04,-0.17,-0.66,1.86,9.61,0,0,0,-0.65,2.36,9.49,19.303751707077
,0,0.12,-0.03,-0.51,0.85,-0.11,-0.05,-0.2,-0.59,1.76,10.01,0,0,0,-0.66,2.33,9.5,19.3209025859833
,0,0.12,-0.03,-0.51,0.85,-0.22,0.03,-0.27,-1.02,1.84,10.45,0,0,0,-0.66,2.31,9.5,19.3387260437012
,0,0.12,-0.03,-0.52,0.85,-0.26,-0.03,-0.28,-0.45,2.52,9.5,0,0,0,-0.67,2.26,9.51,19.3553614616394
,0,0.12,-0.03,-0.52,0.85,-0.28,-0,-0.3,0.08,2.49,9.95,0,0,0,-0.68,2.2,9.53,19.3709919452667
,0,0.11,-0.03,-0.52,0.85,-0.33,-0.02,-0.29,-0.07,2.38,9.67,0,0,0,-0.69,2.17,9.53,19.3886361122131
,0,0.11,-0.02,-0.52,0.85,-0.38,0.15,-0.35,-0.29,1.51,10.08,0,0,0,-0.72,2.09,9.55,19.4054508209229
,0,0.11,-0.02,-0.52,0.84,-0.39,0.34,-0.31,-0.07,2.22,9.29,0,0,0,-0.82,2.02,9.56,19.4217264652252
,0,0.11,-0.01,-0.53,0.84,-0.37,0.79,-0.26,-0.58,1.73,9.89,0,0,0,-0.89,1.98,9.56,19.4386296272278
,0,0.11,-0,-0.53,0.84,-0.25,1.04,-0.31,-0.33,1.96,10.17,0,0,0,-1.09,1.92,9.55,19.4557130336761
,0,0.12,0.01,-0.53,0.84,-0.19,1.13,-0.35,0.03,2,9.75,0,0,0,-1.33,1.88,9.53,19.4713244438171
,0,0.12,0.02,-0.53,0.84,-0.22,1.46,-0.23,-0.47,1.93,10.03,0,0,0,-1.47,1.86,9.51,19.4892063140869
,0,0.13,0.03,-0.53,0.84,-0.31,1.91,-0.25,0.98,2.63,10.49,0,0,0,-1.79,1.8,9.47,19.5058660507202
,0,0.14,0.05,-0.53,0.84,-0.37,2.4,-0.41,0.01,3.38,12.38,0,0,0,-2.32,1.7,9.37,19.5213565826416
,0,0.15,0.09,-0.53,0.83,-0.67,4.02,-0.85,-1.03,1.92,12.57,0,0,0,-2.7,1.62,9.28,19.539158821106
,0,0.16,0.12,-0.53,0.82,-0.88,4.98,-1.25,1.94,4.85,14.35,0,0,0,-3.58,1.41,9.01,19.556263923645
,0,0.19,0.17,-0.53,0.81,-1,5.79,-1.23,-1.84,4.74,11.98,0,0,0,-4.67,1.21,8.53,19.5719356536865
,0,0.21,0.23,-0.52,0.79,-0.64,7.17,-1.06,-2.5,2.27,13.78,0,0,0,-5.26,1.1,8.19,19.5893211364746
,0,0.22,0.26,-0.52,0.78,-1.05,5.82,-2.03,-10.89,-4.27,28.53,0,0,0,-6.25,0.72,7.51,19.6068482398987
,0,0.23,0.28,-0.53,0.77,0.31,0.84,-2.2,2.53,6.2,12.28,0,0,0,-6.55,0.46,7.28,19.622127532959
,0,0.22,0.28,-0.55,0.76,0.17,0.01,-2.07,3.51,7.56,10.55,0,0,0,-6.55,0.34,7.28,19.6394193172455
,0,0.22,0.28,-0.55,0.75,-0.2,-0.63,-1.46,3.01,8.48,9.51,0,0,0,-6.49,0.11,7.34,19.6562371253967
,0,0.21,0.28,-0.56,0.75,-0.11,-0.9,-1.01,2.9,7.92,7.13,0,0,0,-6.35,0.01,7.46,19.6718487739563
,0,0.2,0.26,-0.56,0.76,0.18,-1.25,-0.07,2.74,7.06,6.76,0,0,0,-6.26,0.02,7.54,19.6894688606262
,0,0.2,0.26,-0.56,0.76,0.45,-1.47,0.62,1.84,4.18,7.76,0,0,0,-6.05,0.13,7.71,19.7066156864166
,0,0.2,0.24,-0.56,0.77,0.62,-1.63,0.83,1.36,3.05,8.94,0,0,0,-5.78,0.34,7.9,19.721923828125
,0,0.2,0.22,-0.56,0.77,0.92,-2.06,1.01,0.22,2.54,10.26,0,0,0,-5.62,0.47,8.01,19.7398018836975
,0,0.19,0.2,-0.56,0.78,1.06,-2.62,1.05,-0.47,1.99,9.39,0,0,0,-5.22,0.74,8.26,19.7568099498749
,0,0.19,0.17,-0.56,0.79,1.06,-2.82,1.02,-1.4,1.24,9.68,0,0,0,-4.73,1.01,8.52,19.7722854614258
,0,0.18,0.14,-0.56,0.8,1.07,-3.02,0.9,-1.35,1.39,10.14,0,0,0,-4.47,1.14,8.65,19.7897832393646
,0,0.18,0.13,-0.56,0.8,1.26,-3.25,0.82,-2.33,1.97,11.03,0,0,0,-3.92,1.41,8.87,19.806969165802
,0,0.17,0.09,-0.56,0.8,1.32,-3.39,0.83,-1.97,2.72,10.08,0,0,0,-3.29,1.7,9.07,19.8221054077148
,0,0.16,0.06,-0.56,0.81,1.31,-3.37,0.97,-3.51,3.02,10.79,0,0,0,-2.98,1.84,9.15,19.8397917747498
,0,0.16,0.04,-0.56,0.81,1.26,-3.28,1.13,-3.65,2.8,11.08,0,0,0,-2.35,2.13,9.27,19.8580005168915
,0,0.15,0,-0.55,0.82,1.12,-3.15,1.14,-4.17,2.8,12.37,0,0,0,-1.72,2.38,9.35,19.8738114833832
,0,0.14,-0.03,-0.55,0.82,1.04,-3.1,1.1,-4.75,2.93,13.41,0,0,0,-1.11,2.6,9.38,19.8907208442688
,0,0.14,-0.04,-0.55,0.82,1.06,-3.12,1.12,-6.29,4.36,13.84,0,0,0,-0.8,2.71,9.38,19.908135175705
,0,0.13,-0.07,-0.54,0.83,1.05,-3.08,1.33,-7.13,4.3,12.62,0,0,0,-0.17,2.91,9.36,19.9260032176971
,0,0.12,-0.11,-0.53,0.83,1.03,-2.97,1.46,-7.8,2.13,11.28,0,0,0,0.43,3.09,9.29,19.9415209293365
,0,0.12,-0.12,-0.53,0.83,0.99,-2.59,1.6,-8.06,1.44,10.98,0,0,0,0.71,3.17,9.25,19.9589567184448
,0,0.11,-0.14,-0.52,0.84,0.9,-2.13,1.54,-8.99,0.41,10.1,0,0,0,1.21,3.31,9.14,19.9784729480743
,0,0.11,-0.16,-0.5,0.84,0.67,-1.61,1.41,-10.03,0.17,8.89,0,0,0,1.61,3.4,9.05,19.9928991794586
,0,0.11,-0.17,-0.5,0.84,0.46,-1.28,1.31,-11.03,-1.42,8.03,0,0,0,1.77,3.41,9.01,20.0095143318176
,0,0.1,-0.18,-0.49,0.85,0.31,-0.61,1.01,-12.46,-1.82,8.18,0,0,0,1.98,3.43,8.96,20.0292861461639
,0,0.1,-0.18,-0.48,0.85,0.31,-0.18,0.64,-13.51,-1.7,8.62,0,0,0,2.07,3.45,8.93,20.043624162674
,0,0.1,-0.18,-0.48,0.85,0.33,-0.06,0.48,-13.29,-1.71,7.6,0,0,0,2.09,3.47,8.92,20.0605309009552
,0,0.11,-0.18,-0.48,0.85,0.07,0.33,0.35,-12.22,-0.75,4.86,0,0,0,2.08,3.48,8.92,20.0803034305573
,0,0.1,-0.17,-0.48,0.86,-1.89,1.41,0.45,5.65,-0.58,14.62,0,0,0,1.92,3.26,9.04,20.0950028896332
,0,0.1,-0.15,-0.47,0.86,-1.54,1.37,0.29,6.53,-1.06,11.41,0,0,0,1.81,3.12,9.11,20.110711812973
,0,0.1,-0.14,-0.48,0.86,-0.78,2.1,-0.33,0.82,-3.91,14.95,0,0,0,1.48,2.99,9.21,20.130334854126
,0,0.11,-0.12,-0.48,0.86,-0.19,2.42,-0.73,-2.79,3.24,17.17,0,0,0,0.99,2.93,9.3,20.1450886726379
,0,0.12,-0.1,-0.48,0.86,0.08,1.9,-0.62,-1.7,3.8,14.1,0,0,0,0.8,2.94,9.31,20.1611442565918
,0,0.12,-0.1,-0.48,0.86,0.07,1.58,-0.4,0.67,4.74,12.46,0,0,0,0.49,2.96,9.33,20.1805377006531
,0,0.13,-0.08,-0.48,0.86,-0.1,1.48,-0.12,0.5,5.82,16.31,0,0,0,0.19,2.95,9.34,20.1953701972961
,0,0.13,-0.07,-0.48,0.86,-0.32,1.26,-0.02,-0.19,4.39,9.99,0,0,0,0.08,2.92,9.35,20.2111897468567
,0,0.13,-0.07,-0.48,0.86,-0.45,0.51,-0.04,-0.27,2.95,10.33,0,0,0,-0.01,2.85,9.38,20.2306394577026
,0,0.13,-0.07,-0.48,0.86,-0.34,0.22,-0.19,-0.11,2.93,9.34,0,0,0,-0.08,2.78,9.4,20.2455713748932
,0,0.13,-0.06,-0.48,0.86,-0.33,0.05,-0.19,-0.45,2.59,9.81,0,0,0,-0.09,2.75,9.41,20.2612867355347
,0,0.12,-0.06,-0.48,0.86,-0.29,0.06,-0.06,-0.1,2.1,9.82,0,0,0,-0.11,2.7,9.42,20.2807157039642
,0,0.12,-0.06,-0.49,0.86,-0.2,0.06,-0.07,0.06,2.38,9.76,0,0,0,-0.12,2.65,9.43,20.2954742908478
,0,0.12,-0.06,-0.49,0.86,-0.15,0.11,-0.11,-0.93,2.51,10.18,0,0,0,-0.14,2.64,9.44,20.3118433952332
,0,0.12,-0.06,-0.49,0.86,-0.1,0.15,-0.06,-0.81,2.34,10.01,0,0,0,-0.16,2.62,9.44,20.3306896686554
,0,0.12,-0.06,-0.49,0.86,-0.07,0.19,-0.06,-0.86,2.21,9.97,0,0,0,-0.2,2.6,9.45,20.3455076217651
,0,0.12,-0.06,-0.49,0.86,-0.06,0.21,-0.05,-2.48,2.18,10.23,0,0,0,-0.22,2.6,9.45,20.361510515213
,0,0.12,-0.06,-0.49,0.86,0.02,-0.1,-0.03,-0.96,2.47,9.67,0,0,0,-0.23,2.6,9.45,20.3807096481323
,0,0.12,-0.06,-0.49,0.86,0.03,-0.04,-0.05,-0.04,2.45,9.74,0,0,0,-0.22,2.6,9.45,20.3955194950104
,0,0.12,-0.06,-0.49,0.86,0.02,0.04,-0.05,-0.9,2.03,9.93,0,0,0,-0.22,2.61,9.45,20.4114770889282
,0,0.12,-0.06,-0.49,0.86,0.05,0.09,-0.05,-0.19,2.32,9.82,0,0,0,-0.24,2.61,9.44,20.4307224750519
,0,0.12,-0.06,-0.49,0.86,0.06,0.04,-0.04,-0.33,2.5,9.68,0,0,0,-0.25,2.62,9.44,20.4447386264801
,0,0.12,-0.05,-0.49,0.86,0.06,0.05,-0.05,-0.47,2.38,9.6,0,0,0,-0.26,2.63,9.44,20.46124792099
,0,0.13,-0.05,-0.49,0.86,0.06,0.06,-0.05,0.04,2.83,9.57,0,0,0,-0.27,2.64,9.43,20.4803059101105
,0,0.13,-0.05,-0.49,0.86,0.03,0.07,-0.05,-0.76,2.59,9.68,0,0,0,-0.29,2.64,9.43,20.4949450492859
,0,0.13,-0.05,-0.49,0.86,0.03,0.05,-0.05,-0.94,2.45,9.72,0,0,0,-0.3,2.65,9.43,20.5105907917023
,0,0.13,-0.05,-0.49,0.86,0.02,0.02,-0.05,-0.38,2.56,9.54,0,0,0,-0.3,2.65,9.43,20.5301823616028
,0,0.13,-0.05,-0.49,0.86,0,0.01,-0.05,-0.72,2.38,9.64,0,0,0,-0.31,2.65,9.43,20.544798374176
,0,0.13,-0.05,-0.49,0.86,0.01,0.01,-0.05,-0.45,2.46,9.61,0,0,0,-0.31,2.65,9.43,20.5610296726227
,0,0.13,-0.05,-0.49,0.86,-0,0.05,-0.04,-0.53,2.51,9.69,0,0,0,-0.33,2.64,9.43,20.5788831710815
,0,0.13,-0.05,-0.49,0.86,-0,0.03,-0.04,-0.2,2.59,9.74,0,0,0,-0.33,2.64,9.43,20.5944440364838
,0,0.13,-0.05,-0.49,0.86,-0.01,-0.02,-0.05,-0.38,2.57,9.66,0,0,0,-0.33,2.64,9.43,20.6108000278473
,0,0.13,-0.05,-0.49,0.86,-0.03,0.01,-0.05,-0.51,2.56,9.64,0,0,0,-0.34,2.63,9.43,20.6289434432983
,0,0.13,-0.05,-0.49,0.86,-0.04,0.02,-0.06,-0.62,2.54,9.71,0,0,0,-0.35,2.62,9.44,20.6445813179016
,0,0.13,-0.05,-0.49,0.86,-0.05,0.01,-0.07,-0.61,2.49,9.7,0,0,0,-0.35,2.62,9.44,20.660364151001
,0,0.13,-0.05,-0.49,0.86,-0.06,0.01,-0.08,-0.77,2.49,9.77,0,0,0,-0.36,2.61,9.44,20.6771817207336
,0,0.13,-0.05,-0.49,0.86,-0.06,0.04,-0.08,-0.42,2.33,9.56,0,0,0,-0.37,2.59,9.44,20.6938264369965
,0,0.13,-0.05,-0.49,0.86,-0.07,0.05,-0.09,-0.42,2.31,9.84,0,0,0,-0.38,2.58,9.45,20.710599899292
,0,0.12,-0.05,-0.49,0.86,-0.08,0.05,-0.11,-0.53,2.38,9.5,0,0,0,-0.4,2.56,9.45,20.7284886837006
,0,0.12,-0.05,-0.5,0.86,-0.09,0.06,-0.12,-0.59,2.25,9.75,0,0,0,-0.42,2.54,9.46,20.7442133426666
,0,0.12,-0.05,-0.5,0.86,-0.08,0.04,-0.17,-0.1,2.42,9.44,0,0,0,-0.42,2.53,9.46,20.7608988285065
,0,0.12,-0.05,-0.5,0.86,-0.07,0.06,-0.16,-0.51,2.25,9.64,0,0,0,-0.44,2.51,9.46,20.778306722641
,0,0.12,-0.04,-0.5,0.86,-0.07,0.04,-0.16,-0.32,2.03,9.77,0,0,0,-0.46,2.49,9.47,20.7940964698792
,0,0.12,-0.04,-0.5,0.86,-0.1,0.01,-0.2,-1.14,1.63,8.94,0,0,0,-0.46,2.48,9.47,20.8106026649475
,0,0.12,-0.04,-0.5,0.85,-0.25,0,-0.35,-0.88,3.15,9.05,0,0,0,-0.47,2.44,9.48,20.8286519050598
,0,0.12,-0.04,-0.51,0.85,-0.24,-0.01,-0.31,-0.96,2.86,9.52,0,0,0,-0.49,2.39,9.49,20.8451566696167
,0,0.12,-0.04,-0.51,0.85,-0.28,-0.02,-0.33,-0.49,2.55,9.42,0,0,0,-0.5,2.36,9.5,20.8611118793488
,0,0.12,-0.04,-0.51,0.85,-0.36,0.13,-0.36,-0.6,2.66,9.76,0,0,0,-0.52,2.3,9.51,20.8788628578186
,0,0.11,-0.03,-0.51,0.85,-0.39,0.3,-0.39,-0.59,2.34,10.14,0,0,0,-0.6,2.22,9.53,20.8950254917145
,0,0.11,-0.03,-0.51,0.85,-0.38,0.48,-0.36,-0.89,2.22,10.22,0,0,0,-0.65,2.18,9.53,20.9116523265839
,0,0.11,-0.02,-0.52,0.85,-0.24,0.74,-0.44,-0.27,2.54,9.58,0,0,0,-0.79,2.13,9.53,20.9298570156097
,0,0.12,-0.01,-0.52,0.85,-0.22,0.94,-0.48,-1.62,1.95,10.37,0,0,0,-1,2.08,9.52,20.9452686309814
,0,0.12,-0.01,-0.52,0.85,-0.13,1.12,-0.44,-0.64,1.83,9.78,0,0,0,-1.11,2.07,9.51,20.9614415168762
,0,0.13,0,-0.52,0.84,-0.18,1.29,-0.33,1.32,2.31,9.57,0,0,0,-1.36,2.03,9.49,20.9792730808258
,0,0.13,0.02,-0.52,0.84,-0.26,1.53,-0.27,1.11,2.64,10.03,0,0,0,-1.68,1.96,9.45,20.9952204227448
,0,0.14,0.03,-0.52,0.84,-0.36,2.41,-0.42,2.89,3,10.08,0,0,0,-1.91,1.92,9.42,21.0113577842712
,0,0.15,0.06,-0.52,0.84,-0.54,3.79,-0.78,-0.3,3.3,13.29,0,0,0,-2.57,1.81,9.28,21.0293250083923
,0,0.17,0.11,-0.52,0.83,-0.68,4.28,-0.88,2.73,4.24,14.53,0,0,0,-3.41,1.61,9.04,21.0456831455231
,0,0.17,0.13,-0.52,0.82,-1.18,5.55,-1.34,0.5,3.32,11.38,0,0,0,-3.91,1.46,8.86,21.0616796016693
,0,0.2,0.19,-0.52,0.81,-0.8,7.12,-1.15,-0.79,6.63,11.12,0,0,0,-5.08,1.2,8.29,21.0788447856903
,0,0.23,0.26,-0.51,0.79,-0.76,7.87,-0.73,-1.41,-2.49,27.91,0,0,0,-6.3,0.96,7.44,21.0950453281403
,0,0.24,0.29,-0.51,0.78,-0.75,6.31,-1.88,-15.98,-0.12,30.89,0,0,0,-6.76,0.79,7.05,21.1115148067474
,0,0.24,0.3,-0.52,0.76,0.35,0.24,-1.9,3.69,8.03,11.24,0,0,0,-6.97,0.56,6.87,21.1302514076233
,0,0.23,0.3,-0.53,0.76,0,-0.42,-1.73,3.69,8.32,9.04,0,0,0,-6.9,0.33,6.95,21.1455664634705
,0,0.23,0.3,-0.54,0.75,-0.24,-0.98,-1.06,3.37,8.76,8.77,0,0,0,-6.84,0.24,7.01,21.1614007949829
,0,0.22,0.29,-0.54,0.76,0.08,-1.42,-0.11,2.61,7.76,7.71,0,0,0,-6.66,0.19,7.19,21.1794819831848
,0,0.22,0.28,-0.54,0.76,0.22,-1.62,0.35,1.65,4.82,7.24,0,0,0,-6.42,0.3,7.4,21.195732831955
,0,0.21,0.27,-0.54,0.77,0.6,-1.94,0.97,0.96,2.91,7.67,0,0,0,-6.27,0.4,7.52,21.211932182312
,0,0.21,0.24,-0.54,0.78,0.95,-2.28,1.15,0.02,2.2,8.73,0,0,0,-5.94,0.67,7.77,21.2296097278595
,0,0.21,0.21,-0.54,0.79,1.01,-2.47,1.15,-1.23,1.56,8.83,0,0,0,-5.53,0.95,8.04,21.2455930709839
,0,0.21,0.2,-0.54,0.79,0.98,-2.84,1.05,-1.49,1.47,8.95,0,0,0,-5.29,1.08,8.18,21.2615823745728
,0,0.2,0.17,-0.54,0.8,0.99,-3,0.89,-2.47,1.72,10.19,0,0,0,-4.79,1.33,8.44,21.279953956604
,0,0.19,0.14,-0.54,0.81,1.08,-3.13,0.86,-3.14,2.52,10.14,0,0,0,-4.23,1.59,8.7,21.2961940765381
