Header,TimeStamp,QuatX,QuatY,QuatZ,QuatW,GyroX,GyroY,GyroZ,AccelX,AccelY,AccelZ,EulerX,EulerY,EulerZ,GravityX,GravityY,GravityZ,TimeStampGlob
,0,0.07,0.22,-0.3,0.92,0.73,5.29,-0.5,3.1,1.34,9.97,0,0,0,-4.45,-0.02,8.73,0.248032569885254
,0,0.11,0.27,-0.31,0.9,2.43,6.08,-0.94,5.39,1.76,8.34,0,0,0,-5.46,0.23,8.13,0.263998031616211
,0,0.12,0.29,-0.32,0.89,1.83,5.25,-2.17,-9.8,3.91,28.17,0,0,0,-5.88,0.26,7.84,0.279410600662231
,0,0.13,0.31,-0.34,0.88,0.87,2.81,-1.76,5.9,6.46,14.33,0,0,0,-6.14,0.22,7.64,0.296227216720581
,0,0.13,0.3,-0.34,0.88,0.66,0.06,-0.54,3.86,4.37,11.73,0,0,0,-6.14,0.24,7.63,0.314119338989258
,0,0.13,0.3,-0.34,0.88,0.38,-0.51,-0.13,4.88,3.22,10.29,0,0,0,-6.1,0.28,7.66,0.32931661605835
,0,0.13,0.29,-0.34,0.88,0.37,-0.8,0.04,4.18,1.56,8.89,0,0,0,-5.96,0.34,7.77,0.346208095550537
,0,0.13,0.28,-0.34,0.89,0.35,-1.46,0.28,3.98,1.08,8.63,0,0,0,-5.85,0.39,7.86,0.363674879074097
,0,0.13,0.27,-0.34,0.89,0.31,-1.96,0.39,2.77,0.44,9.39,0,0,0,-5.56,0.48,8.06,0.379233598709106
,0,0.13,0.25,-0.34,0.9,0.24,-2.24,0.41,1.91,0.24,9.78,0,0,0,-5.18,0.55,8.3,0.396431922912598
,0,0.12,0.22,-0.34,0.91,0.14,-2.81,0.39,1.7,0.22,9.67,0,0,0,-4.95,0.58,8.44,0.413777112960815
,0,0.11,0.21,-0.34,0.91,0.09,-3.25,0.35,0.37,1.03,10.69,0,0,0,-4.42,0.63,8.72,0.429545164108276
,0,0.1,0.17,-0.34,0.92,0.07,-3.49,0.35,0.03,1.2,10.47,0,0,0,-3.8,0.67,9.01,0.446512937545776
,0,0.09,0.14,-0.35,0.92,0.04,-3.73,0.38,-0.57,1.33,10.97,0,0,0,-3.47,0.69,9.14,0.464337110519409
,0,0.09,0.12,-0.34,0.93,0.15,-3.86,0.44,-0.61,1.73,12.12,0,0,0,-2.78,0.73,9.37,0.479903221130371
,0,0.07,0.09,-0.34,0.93,0.16,-3.87,0.49,-0.88,2.28,13.51,0,0,0,-2.06,0.79,9.55,0.496639013290405
,0,0.06,0.05,-0.34,0.94,0.08,-3.96,0.65,-0.97,2.4,13.79,0,0,0,-1.69,0.8,9.62,0.514305353164673
,0,0.06,0.03,-0.34,0.94,-0.04,-3.96,0.82,-1.22,2.41,13.73,0,0,0,-0.93,0.82,9.72,0.531429767608643
,0,0.04,-0,-0.33,0.94,-0.16,-3.88,0.86,-2.5,2.76,15.3,0,0,0,-0.2,0.79,9.77,0.547268867492676
,0,0.03,-0.04,-0.32,0.94,-0.39,-3.68,0.88,-3.11,3.16,15.86,0,0,0,0.5,0.71,9.76,0.564659357070923
,0,0.02,-0.05,-0.32,0.95,-0.29,-3.63,0.92,-4.96,4.74,15.01,0,0,0,0.85,0.68,9.74,0.581444025039673
,0,0.01,-0.08,-0.31,0.95,-0.17,-3.59,0.97,-7.02,5.08,11.96,0,0,0,1.53,0.64,9.66,0.597162246704102
,0,-0,-0.11,-0.3,0.95,0.06,-3.18,1.09,-7.87,4.19,9.44,0,0,0,1.83,0.63,9.61,0.614989519119263
,0,-0,-0.12,-0.3,0.95,0.35,-2.28,1.01,-11.72,1.27,9.17,0,0,0,2.3,0.63,9.51,0.631933689117432
,0,-0.01,-0.14,-0.29,0.95,0.46,-1.84,0.91,-15.94,-0.2,7.88,0,0,0,2.63,0.67,9.42,0.647298574447632
,0,-0.01,-0.15,-0.28,0.95,0.32,-1.41,0.72,-16.48,-0.69,5.99,0,0,0,2.76,0.68,9.38,0.665485382080078
,0,-0.01,-0.15,-0.28,0.95,0.3,-0.53,0.52,-17.43,-0.2,3.04,0,0,0,2.91,0.7,9.33,0.682011127471924
,0,-0.01,-0.15,-0.28,0.95,-0.06,0.64,0.19,-16.91,1.31,3.05,0,0,0,2.85,0.69,9.35,0.697945833206177
,0,-0.01,-0.14,-0.28,0.95,-0.27,1.24,0.13,-13.18,2.01,5.55,0,0,0,2.62,0.61,9.42,0.715751886367798
,0,-0.01,-0.14,-0.27,0.95,-0.57,0.39,0.53,9.51,7.6,5.78,0,0,0,2.59,0.55,9.44,0.732384443283081
,0,-0.02,-0.12,-0.27,0.95,-1.24,1.35,0.18,7.23,-1.14,-3.4,0,0,0,2.4,0.37,9.49,0.747495889663696
,0,-0.02,-0.09,-0.27,0.96,-1.18,3.06,0.34,0.23,-3.15,11.7,0,0,0,2.12,0.26,9.57,0.765226125717163
,0,-0.01,-0.08,-0.27,0.96,-0.24,2.45,-0.02,-1.08,-7,14.56,0,0,0,1.58,0.16,9.67,0.782364130020142
,0,-0.01,-0.06,-0.27,0.96,0.5,1.81,-0.4,1.47,1.29,12.32,0,0,0,1.24,0.23,9.72,0.797791004180908
,0,0,-0.05,-0.28,0.96,0.62,1.74,-0.4,0.78,3.46,12.25,0,0,0,0.9,0.35,9.75,0.815557479858398
,0,0.01,-0.04,-0.28,0.96,0.57,1.77,-0.1,0.51,2.42,13.92,0,0,0,0.73,0.41,9.77,0.832679510116577
,0,0.02,-0.03,-0.28,0.96,0.2,1.07,0.04,0.19,1.96,15.73,0,0,0,0.47,0.46,9.78,0.847975492477417
,0,0.02,-0.03,-0.28,0.96,0.01,0.65,-0.02,-1.83,2.03,13.57,0,0,0,0.41,0.46,9.78,0.865618705749512
,0,0.02,-0.02,-0.28,0.96,-0.22,0.25,0.04,1.94,1,9.06,0,0,0,0.36,0.42,9.79,0.882957458496094
,0,0.02,-0.02,-0.28,0.96,-0.2,0.29,-0.09,0.35,1.39,10.54,0,0,0,0.29,0.39,9.79,0.898724794387817
,0,0.01,-0.02,-0.28,0.96,-0.19,0.14,-0.1,0.36,0.77,10.66,0,0,0,0.28,0.37,9.79,0.915618181228638
,0,0.01,-0.02,-0.28,0.96,-0.12,0.01,-0.13,0.42,1.26,10.35,0,0,0,0.27,0.34,9.79,0.93230152130127
,0,0.01,-0.02,-0.28,0.96,-0.15,0.05,-0.12,0.97,0.66,9.94,0,0,0,0.27,0.31,9.79,0.947625875473022
,0,0.01,-0.02,-0.28,0.96,-0.16,-0.01,-0.09,1.33,0.89,9.82,0,0,0,0.27,0.3,9.79,0.965651750564575
,0,0.01,-0.02,-0.28,0.96,-0.11,-0.01,-0.07,0.83,1.17,9.9,0,0,0,0.27,0.28,9.79,0.982018947601318
,0,0.01,-0.02,-0.28,0.96,-0.1,0.08,-0.05,0.6,0.89,10.32,0,0,0,0.26,0.26,9.79,0.997778654098511
,0,0.01,-0.02,-0.28,0.96,-0.09,0.06,-0.03,0.78,0.94,9.79,0,0,0,0.25,0.25,9.79,1.01561498641968
,0,0.01,-0.02,-0.28,0.96,-0.07,0.07,-0.04,-0.13,1.31,10.15,0,0,0,0.24,0.23,9.8,1.03253602981567
,0,0.01,-0.02,-0.28,0.96,-0.05,0.05,-0.04,0,0.71,10.25,0,0,0,0.24,0.23,9.8,1.04824185371399
,0,0.01,-0.02,-0.28,0.96,-0.03,0.02,-0.04,0.41,0.74,9.91,0,0,0,0.23,0.23,9.8,1.06586289405823
,0,0.01,-0.01,-0.28,0.96,-0.04,0.06,-0.03,0.54,0.77,9.73,0,0,0,0.23,0.22,9.8,1.08222317695618
,0,0.01,-0.01,-0.28,0.96,-0.04,-0,-0.04,0.7,0.83,10.08,0,0,0,0.23,0.21,9.8,1.09821200370789
,0,0.01,-0.01,-0.28,0.96,-0.03,-0.02,-0.04,1.05,1,9.4,0,0,0,0.23,0.21,9.8,1.11589980125427
,0,0.01,-0.01,-0.28,0.96,-0.03,0.01,-0.03,1.16,0.85,9.69,0,0,0,0.23,0.21,9.8,1.13350701332092
,0,0.01,-0.01,-0.28,0.96,-0.02,0.01,-0.02,1.55,0.94,9.42,0,0,0,0.22,0.2,9.8,1.14974927902222
,0,0.01,-0.01,-0.28,0.96,-0.02,0.05,-0.02,1.32,0.96,9.47,0,0,0,0.22,0.2,9.8,1.16695404052734
,0,0.01,-0.01,-0.28,0.96,-0.02,0.01,-0.03,0.93,0.92,9.58,0,0,0,0.22,0.2,9.8,1.18418288230896
,0,0.01,-0.01,-0.28,0.96,-0.03,-0.03,-0.04,0.78,0.96,9.58,0,0,0,0.22,0.19,9.8,1.20098233222961
,0,0.01,-0.01,-0.28,0.96,-0.04,0.02,-0.03,0.52,0.96,9.89,0,0,0,0.21,0.18,9.8,1.21752381324768
,0,0.01,-0.01,-0.28,0.96,-0.04,0.04,-0.02,0.43,0.81,10.01,0,0,0,0.21,0.18,9.8,1.23478651046753
,0,0.01,-0.01,-0.28,0.96,-0.04,0.02,-0.01,0.23,0.87,10.04,0,0,0,0.2,0.17,9.8,1.25310969352722
,0,0.01,-0.01,-0.28,0.96,-0.04,0.02,-0.01,0.46,0.81,9.87,0,0,0,0.2,0.16,9.8,1.26876473426819
,0,0.01,-0.01,-0.28,0.96,-0.04,0.02,-0.02,0.89,0.87,9.74,0,0,0,0.21,0.18,9.8,1.28566932678223
,0,0.01,-0.01,-0.29,0.96,-0.03,-0,-0.03,0.82,0.71,9.87,0,0,0,0.23,0.2,9.8,1.30433654785156
,0,0.01,-0.02,-0.29,0.96,-0.02,0,-0.04,1.24,0.81,9.9,0,0,0,0.25,0.22,9.8,1.31899476051331
,0,0.01,-0.02,-0.29,0.96,-0.01,0.01,-0.04,1.18,0.98,9.39,0,0,0,0.25,0.22,9.8,1.33599138259888
,0,0.01,-0.02,-0.29,0.96,-0.02,0.06,-0.03,1.23,0.8,9.54,0,0,0,0.24,0.21,9.8,1.35509347915649
,0,0.01,-0.01,-0.29,0.96,-0.02,0.13,-0.03,0.96,0.49,9.93,0,0,0,0.22,0.21,9.8,1.36970901489258
,0,0.01,-0.01,-0.29,0.96,-0.03,0.1,-0.04,0.86,0.87,9.53,0,0,0,0.22,0.22,9.8,1.38600182533264
,0,0.01,-0.01,-0.29,0.96,-0.03,0.14,-0.05,0.33,0.64,9.85,0,0,0,0.2,0.22,9.8,1.40505790710449
,0,0.01,-0.01,-0.29,0.96,-0.03,0.14,-0.06,-0.59,0.47,8.84,0,0,0,0.17,0.21,9.8,1.41979265213013
,0,0.01,-0.01,-0.29,0.96,-0.04,0.16,-0.04,-0.05,0.68,10.66,0,0,0,0.16,0.2,9.8,1.43716788291931
,0,0.01,-0.01,-0.29,0.96,-0.01,0.1,0.02,1.1,1.74,9.39,0,0,0,0.13,0.2,9.8,1.45626592636108
,0,0.01,-0.01,-0.29,0.96,-0.01,0.18,0.05,2.09,1.17,10.39,0,0,0,0.1,0.2,9.8,1.47057580947876
,0,0.01,-0.01,-0.29,0.96,-0.02,0.32,-0,1.32,1.35,9.98,0,0,0,0.07,0.2,9.8,1.48715972900391
,0,0.01,-0,-0.29,0.96,-0.04,0.59,-0.02,1.4,0.93,9.66,0,0,0,-0.02,0.19,9.8,1.50624799728394
,0,0.01,0.01,-0.29,0.96,-0.1,0.96,-0.09,0.2,0.42,10.24,0,0,0,-0.18,0.17,9.8,1.52061915397644
,0,0.01,0.01,-0.29,0.96,-0.08,1.08,-0.06,0.39,0.91,10.04,0,0,0,-0.28,0.16,9.8,1.53696227073669
,0,0.02,0.02,-0.29,0.96,0,1.46,-0.04,0.7,1.08,9.57,0,0,0,-0.54,0.16,9.79,1.55637788772583
,0,0.02,0.04,-0.29,0.96,0,2.01,0.13,-0.26,1.22,9.56,0,0,0,-0.89,0.17,9.76,1.57052969932556
,0,0.02,0.05,-0.29,0.96,0.02,2.41,0.22,-0.92,-0.5,13.56,0,0,0,-1.11,0.17,9.74,1.5874547958374
,0,0.03,0.07,-0.28,0.96,0.23,2.21,0.27,0.77,0.48,9.55,0,0,0,-1.53,0.2,9.68,1.6064305305481
,0,0.04,0.1,-0.28,0.95,-0.21,2.91,0.04,6.12,-2.67,12.17,0,0,0,-2.04,0.18,9.58,1.62113070487976
,0,0.04,0.12,-0.28,0.95,-0.23,3.96,-0.41,-1.31,-0.68,12.6,0,0,0,-2.41,0.15,9.5,1.63750720024109
,0,0.06,0.16,-0.29,0.94,0.95,5.54,-0.81,4.25,3.54,14.27,0,0,0,-3.35,0.23,9.21,1.65690541267395
,0,0.1,0.22,-0.29,0.93,1.99,7.59,-0.5,5.31,3.92,9.35,0,0,0,-4.58,0.47,8.65,1.67179322242737
,0,0.12,0.26,-0.29,0.91,2.13,7.95,-0.73,6.17,-2.06,12.88,0,0,0,-5.24,0.61,8.26,1.68782758712769
,0,0.14,0.32,-0.31,0.89,1.36,6.36,-2.84,-15.65,-0.93,26.18,0,0,0,-6.35,0.6,7.44,1.70674514770508
,0,0.13,0.33,-0.33,0.87,-0.04,-0.34,-2.28,10.53,2.95,9.67,0,0,0,-6.49,0.18,7.34,1.72118735313416
,0,0.13,0.32,-0.34,0.87,0.02,-1.06,-1.33,10.4,6.01,6.35,0,0,0,-6.42,0.1,7.4,1.73748373985291
,0,0.12,0.32,-0.35,0.87,-0.11,-0.99,-1.24,6.55,6.57,9.53,0,0,0,-6.33,-0.08,7.48,1.75640106201172
,0,0.12,0.31,-0.36,0.87,0.1,-1.66,-0.3,4.63,4.88,8.95,0,0,0,-6.11,-0.13,7.66,1.77084755897522
,0,0.11,0.3,-0.36,0.88,0.1,-2.01,0.14,4.11,3.31,8.74,0,0,0,-5.96,-0.12,7.78,1.78720712661743
,0,0.11,0.28,-0.35,0.89,0.19,-2.69,0.68,3.12,1.05,8.41,0,0,0,-5.57,-0.03,8.06,1.8062527179718
,0,0.1,0.25,-0.35,0.9,0.23,-3.23,0.75,1.56,-1.31,8.72,0,0,0,-5.07,0.08,8.38,1.8207221031189
,0,0.1,0.23,-0.35,0.9,0.2,-3.42,0.66,0.84,-1.75,8.68,0,0,0,-4.79,0.13,8.55,1.8369197845459
,0,0.09,0.2,-0.35,0.91,0.12,-3.81,0.29,-0.64,-2.53,7.83,0,0,0,-4.16,0.19,8.87,1.85627508163452
,0,0.08,0.17,-0.35,0.92,0.12,-3.86,-0.17,-1.03,-0.76,8.87,0,0,0,-3.49,0.2,9.16,1.87180781364441
,0,0.07,0.15,-0.36,0.92,0.16,-3.88,-0.3,-0.98,-0.12,9.5,0,0,0,-3.14,0.2,9.28,1.88715505599976
,0,0.06,0.11,-0.36,0.92,0.22,-3.84,-0.31,-0.59,0.64,10.21,0,0,0,-2.44,0.22,9.49,1.90606188774109
,0,0.05,0.08,-0.37,0.93,0.43,-3.55,-0.23,-1.47,1.54,14.28,0,0,0,-1.77,0.28,9.64,1.92119908332825
,0,0.04,0.06,-0.37,0.93,0.57,-3.49,-0.2,-3.26,4.42,18.31,0,0,0,-1.45,0.33,9.69,1.93736338615417
,0,0.04,0.03,-0.37,0.93,0.56,-3.83,0.23,-4.97,6.49,17.72,0,0,0,-0.74,0.44,9.76,1.95642518997192
,0,0.03,-0.01,-0.36,0.93,0.38,-4.03,0.99,-7.68,5.77,14.86,0,0,0,0.01,0.53,9.79,1.97163152694702
,0,0.02,-0.03,-0.36,0.93,0.32,-3.96,1.36,-8.57,4.74,14.04,0,0,0,0.39,0.56,9.78,1.98763394355774
,0,0.01,-0.06,-0.34,0.94,0.21,-3.62,1.8,-10.03,2.45,12.12,0,0,0,1.12,0.58,9.72,2.00662899017334
,0,-0,-0.09,-0.33,0.94,0.11,-3.32,1.81,-11.65,0.48,9.29,0,0,0,1.72,0.54,9.63,2.0213737487793
,0,-0.01,-0.1,-0.32,0.94,-0.01,-2.42,1.52,-12.66,0.96,8.7,0,0,0,1.96,0.51,9.59,2.03752541542053
,0,-0.01,-0.12,-0.31,0.94,-0.2,-1.29,1.05,-16.71,-0.69,7.45,0,0,0,2.26,0.44,9.53,2.05637907981873
,0,-0.02,-0.13,-0.3,0.94,0,-0.95,0.77,-17.16,-0.78,9.05,0,0,0,2.41,0.43,9.49,2.07189512252808
,0,-0.02,-0.13,-0.3,0.94,0.4,-0.36,0.31,-16.21,0.23,5.85,0,0,0,2.44,0.46,9.48,2.08791732788086
,0,-0.01,-0.13,-0.3,0.95,0.12,0.22,0.27,-14.72,1.34,3.85,0,0,0,2.44,0.5,9.48,2.10644006729126
,0,-0.02,-0.12,-0.29,0.95,-0.23,0.77,0.45,7.64,0.27,13.98,0,0,0,2.31,0.34,9.52,2.12173295021057
,0,-0.02,-0.11,-0.29,0.95,-0.93,0.85,0.65,7.26,-3.88,1.6,0,0,0,2.24,0.24,9.54,2.13769316673279
,0,-0.02,-0.1,-0.29,0.95,-0.53,2.1,0.09,1.14,-4.62,6.69,0,0,0,1.96,0.11,9.6,2.15605783462524
,0,-0.02,-0.07,-0.29,0.95,-0.38,3.19,0.06,0.03,-0.25,15.43,0,0,0,1.42,0.07,9.7,2.17105722427368
,0,-0.01,-0.06,-0.29,0.95,0.22,1.83,-0.2,0.42,0.99,13.42,0,0,0,1.25,0.09,9.72,2.18753409385681
,0,-0.01,-0.05,-0.29,0.95,0.38,1.53,-0.15,0.6,1.04,12.67,0,0,0,0.95,0.17,9.75,2.20547270774841
,0,0,-0.04,-0.29,0.95,0.36,1.5,-0.06,-1.78,0.6,14.07,0,0,0,0.67,0.23,9.78,2.22176718711853
,0,0,-0.03,-0.29,0.96,0.24,1.07,-0.03,0.11,1.35,12.53,0,0,0,0.57,0.25,9.78,2.23744225502014
,0,0.01,-0.03,-0.29,0.96,-0.1,0.65,-0,0.15,0.15,9.78,0,0,0,0.44,0.25,9.79,2.25548124313354
,0,0,-0.02,-0.29,0.96,-0.24,-0.03,0.02,0.37,0.78,11.34,0,0,0,0.42,0.21,9.79,2.27145481109619
,0,0,-0.02,-0.29,0.96,-0.16,0.5,0.02,0.11,0.39,11.07,0,0,0,0.37,0.2,9.79,2.28774309158325
,0,0,-0.02,-0.29,0.96,-0.04,0.01,-0.05,1.31,1.06,9.29,0,0,0,0.35,0.18,9.79,2.30583810806274
,0,0,-0.02,-0.3,0.96,0,0.09,-0.06,1.12,1.32,9.96,0,0,0,0.33,0.18,9.79,2.32100296020508
,0,0,-0.02,-0.3,0.96,-0.02,0.01,-0.05,1.43,0.83,9.74,0,0,0,0.33,0.18,9.79,2.33720374107361
,0,0,-0.02,-0.3,0.95,-0.06,0.06,-0.03,0.94,1.09,9.96,0,0,0,0.33,0.17,9.79,2.35565280914307
,0,0,-0.02,-0.3,0.95,-0.05,0.05,-0.03,0.58,1.24,9.82,0,0,0,0.32,0.16,9.79,2.37135076522827
,0,0,-0.02,-0.3,0.95,-0.06,0.06,-0.02,0.46,1.14,10.75,0,0,0,0.31,0.15,9.8,2.38743233680725
,0,0,-0.02,-0.3,0.95,-0.1,0,-0.02,-0.6,1.21,10.15,0,0,0,0.31,0.14,9.8,2.40591025352478
,0,0,-0.02,-0.3,0.95,-0.1,0.03,-0.05,0.78,1.05,9.41,0,0,0,0.32,0.12,9.8,2.4219183921814
,0,0,-0.02,-0.3,0.95,-0.08,-0.05,-0.05,0.45,0.46,9.81,0,0,0,0.33,0.11,9.8,2.43801760673523
,0,-0,-0.02,-0.3,0.95,-0.11,0.04,-0.08,0.66,0.85,9.92,0,0,0,0.32,0.09,9.8,2.45571279525757
,0,-0,-0.02,-0.3,0.95,-0.12,0.04,-0.07,1.69,0.87,9.71,0,0,0,0.31,0.07,9.8,2.47160983085632
,0,-0,-0.02,-0.3,0.95,-0.07,-0,-0.07,1.59,0.91,9.76,0,0,0,0.31,0.06,9.8,2.48804664611816
,0,-0,-0.02,-0.3,0.95,-0.07,0.04,-0.07,1.73,0.77,9.72,0,0,0,0.3,0.05,9.8,2.50655746459961
,0,-0,-0.01,-0.3,0.95,-0.06,0.08,-0.06,1.24,0.73,9.67,0,0,0,0.28,0.04,9.8,2.52232360839844
,0,-0,-0.01,-0.3,0.95,-0.04,0.07,-0.06,1.05,0.91,9.56,0,0,0,0.28,0.03,9.8,2.53783869743347
,0,-0,-0.01,-0.3,0.95,-0.04,0.1,-0.04,0.54,0.64,9.68,0,0,0,0.26,0.03,9.8,2.55615448951721
,0,-0,-0.01,-0.3,0.95,-0.04,0.08,-0.04,0.34,0.7,9.89,0,0,0,0.24,0.02,9.8,2.57225131988525
,0,-0,-0.01,-0.3,0.95,-0.03,0.07,-0.04,-0.06,0.88,9.79,0,0,0,0.24,0.02,9.8,2.58818054199219
,0,-0,-0.01,-0.3,0.95,-0.04,0.08,-0.03,-0.14,0.71,10.01,0,0,0,0.22,0.01,9.8,2.60656785964966
,0,-0,-0.01,-0.3,0.95,-0.05,0.08,-0.03,0.8,0.8,9.63,0,0,0,0.21,0,9.8,2.62227630615234
,0,-0,-0.01,-0.3,0.95,0.01,0.02,-0.01,1.13,0.62,9.78,0,0,0,0.21,0,9.8,2.64115595817566
,0,-0,-0.01,-0.3,0.95,-0,0.05,-0.03,0.89,0.67,9.66,0,0,0,0.2,0,9.8,2.65903377532959
,0,-0,-0.01,-0.3,0.95,0,0.04,-0.11,0.86,0.94,9.68,0,0,0,0.2,0,9.8,2.67324042320251
,0,-0,-0.01,-0.3,0.95,0.03,0.02,-0.14,0.81,0.55,9.6,0,0,0,0.19,0.01,9.8,2.68857836723328
,0,-0,-0.01,-0.3,0.95,0.01,0.08,-0.08,0.88,0.55,9.78,0,0,0,0.21,0.04,9.8,2.70580434799194
,0,0,-0.01,-0.3,0.95,0.02,0.08,-0.08,0.72,0.74,9.77,0,0,0,0.22,0.08,9.8,2.72233700752258
,0,0,-0.01,-0.3,0.95,0.05,0.09,-0.04,0.73,0.57,9.56,0,0,0,0.23,0.09,9.8,2.73806643486023
,0,0,-0.01,-0.31,0.95,0.05,0.09,-0.04,0.56,0.81,9.94,0,0,0,0.23,0.13,9.8,2.75597357749939
,0,0,-0.01,-0.31,0.95,0.04,0.12,-0.05,0.77,0.74,9.89,0,0,0,0.23,0.16,9.8,2.77226972579956
,0,0.01,-0.01,-0.31,0.95,0.06,0.1,0,1.08,0.81,9.79,0,0,0,0.24,0.18,9.8,2.78804063796997
,0,0.01,-0.01,-0.31,0.95,0.07,0.08,0,-0.44,1.32,8.85,0,0,0,0.23,0.2,9.8,2.80642414093018
,0,0.01,-0.01,-0.31,0.95,0.03,0.16,-0.06,0.42,0.54,9.03,0,0,0,0.19,0.2,9.8,2.82238507270813
,0,0.01,-0.01,-0.31,0.95,0.18,0.23,0.03,0.53,0.48,9.02,0,0,0,0.17,0.22,9.8,2.83873319625854
,0,0.01,-0.01,-0.31,0.95,0.18,0.23,0.03,1.77,0.56,8.83,0,0,0,0.11,0.25,9.8,2.85687184333801
,0,0.01,-0,-0.31,0.95,-0.25,0.64,-0.09,0.67,0.91,10.35,0,0,0,0,0.2,9.8,2.87277317047119
,0,0.01,0,-0.31,0.95,-0.08,0.79,0.06,0.22,1.07,10.31,0,0,0,-0.08,0.19,9.8,2.88843107223511
,0,0.01,0.01,-0.31,0.95,-0.08,0.79,0.06,-0.76,1.36,9.74,0,0,0,-0.24,0.18,9.8,2.90655374526978
,0,0.02,0.02,-0.3,0.95,0.06,1.12,0.1,0.19,1,9.88,0,0,0,-0.47,0.2,9.79,2.92316341400146
,0,0.02,0.03,-0.3,0.95,0.06,1.61,0.26,1.79,0.46,9.4,0,0,0,-0.62,0.2,9.78,2.9386248588562
,0,0.03,0.05,-0.3,0.95,0.06,1.61,0.26,1.54,-0.14,10.19,0,0,0,-1,0.21,9.75,2.95673489570618
,0,0.03,0.07,-0.3,0.95,-0.08,2.39,0.39,0.44,0.18,12.73,0,0,0,-1.44,0.2,9.69,2.97292470932007
,0,0.03,0.08,-0.29,0.95,-0.19,2.65,0.18,2,1.95,9.73,0,0,0,-1.69,0.18,9.65,2.98856949806213
,0,0.04,0.11,-0.29,0.95,-0.19,2.65,0.18,4.42,-1.62,11.1,0,0,0,-2.29,0.11,9.53,3.00716066360474
,0,0.05,0.15,-0.3,0.94,-0.21,4.3,-0.78,0.23,0.91,12.68,0,0,0,-3.1,0.02,9.3,3.023677110672
,0,0.06,0.18,-0.3,0.94,-0.22,5.16,-0.93,5.26,0.64,14.52,0,0,0,-3.56,-0.02,9.13,3.03898048400879
,0,0.08,0.23,-0.31,0.92,0.73,6.29,-0.93,2.79,1.91,8.18,0,0,0,-4.72,0.11,8.59,3.05713272094727
,0,0.12,0.29,-0.32,0.89,1.65,7.4,-1.75,1.66,-0.26,11.08,0,0,0,-5.88,0.19,7.84,3.07390403747559
,0,0.13,0.31,-0.34,0.88,1.65,4.9,-3.38,-1.76,-6.15,33.45,0,0,0,-6.25,0.11,7.55,3.08955359458923
,0,0.12,0.32,-0.36,0.87,-0.07,1.41,-3.69,2.42,7.15,13.09,0,0,0,-6.29,-0.22,7.51,3.10762429237366
,0,0.11,0.32,-0.37,0.87,-0.18,-0.94,-1.4,12.97,2.3,6.02,0,0,0,-6.18,-0.41,7.59,3.1239275932312
,0,0.11,0.31,-0.38,0.87,-0.01,-0.92,-1.07,6.77,4.74,7.22,0,0,0,-6.11,-0.47,7.65,3.13939189910889
,0,0.1,0.3,-0.38,0.87,0.17,-1.02,-0.68,5.48,5.23,8.88,0,0,0,-5.93,-0.5,7.78,3.15770101547241
,0,0.1,0.29,-0.38,0.87,0.29,-1.65,0.09,4.56,3.63,8.82,0,0,0,-5.66,-0.43,7.99,3.17396712303162
,0,0.1,0.28,-0.38,0.88,0.42,-2.24,0.6,3.54,1.84,9.22,0,0,0,-5.48,-0.36,8.11,3.18913984298706
,0,0.1,0.25,-0.38,0.89,0.48,-2.55,0.74,1.98,-0.27,10.21,0,0,0,-5.06,-0.2,8.39,3.2076108455658
,0,0.09,0.22,-0.38,0.9,0.5,-3.15,0.79,1.48,-0.83,9.75,0,0,0,-4.52,-0.05,8.7,3.22421026229858
,0,0.09,0.2,-0.38,0.9,0.45,-3.51,0.62,0.54,-1.54,8.74,0,0,0,-4.22,0,8.84,3.23946738243103
,0,0.08,0.17,-0.38,0.91,0.35,-3.55,0.49,-0.72,-2.37,9.84,0,0,0,-3.61,0.09,9.11,3.25791835784912
,0,0.07,0.14,-0.38,0.91,0.25,-3.56,0.15,-1.07,-2.12,11.01,0,0,0,-2.96,0.14,9.34,3.27417063713074
,0,0.06,0.12,-0.38,0.92,0.37,-3.72,0,-1.37,0.21,11.41,0,0,0,-2.62,0.18,9.44,3.28935766220093
,0,0.05,0.09,-0.38,0.92,0.42,-3.67,0.05,-1.91,0.91,12.47,0,0,0,-1.95,0.26,9.6,3.30772805213928
,0,0.04,0.06,-0.38,0.92,0.42,-3.48,0.2,-2.23,1.44,13.39,0,0,0,-1.3,0.34,9.71,3.32417821884155
,0,0.04,0.04,-0.38,0.92,0.32,-3.4,0.42,-3.18,3,15.37,0,0,0,-0.98,0.38,9.74,3.33965611457825
,0,0.03,0.01,-0.37,0.93,0.27,-3.39,0.56,-4.56,4.3,16.72,0,0,0,-0.32,0.43,9.79,3.35737586021423
,0,0.02,-0.03,-0.37,0.93,0.21,-3.62,0.92,-4.96,5.01,14.63,0,0,0,0.36,0.47,9.78,3.37455177307129
,0,0.01,-0.04,-0.36,0.93,0.17,-3.5,1.31,-5.64,4.64,12.43,0,0,0,0.7,0.48,9.76,3.38951086997986
,0,-0,-0.07,-0.35,0.94,0.13,-3.28,1.45,-7.41,2.21,10.49,0,0,0,1.31,0.47,9.7,3.40782999992371
,0,-0.01,-0.09,-0.33,0.94,0.09,-2.73,1.47,-7.97,1.38,9.95,0,0,0,1.8,0.44,9.62,3.42436337471008
,0,-0.01,-0.1,-0.33,0.94,-0.07,-1.94,1.2,-11.9,-0.45,11,0,0,0,1.98,0.42,9.59,3.43973112106323
,0,-0.02,-0.12,-0.32,0.94,-0.07,-1.69,1.02,-14.11,-0.56,8.69,0,0,0,2.28,0.38,9.52,3.458176612854
,0,-0.02,-0.13,-0.31,0.94,0.12,-1.18,0.64,-15.05,-1.05,9.49,0,0,0,2.48,0.39,9.47,3.47456932067871
,0,-0.02,-0.13,-0.31,0.94,0.17,-0.67,0.37,-17.6,0.19,4.17,0,0,0,2.54,0.39,9.46,3.49021291732788
,0,-0.02,-0.13,-0.31,0.94,0.06,-0.2,0.33,-17.68,1.35,1.52,0,0,0,2.52,0.37,9.46,3.50773644447327
,0,-0.03,-0.11,-0.31,0.95,-0.49,1.34,0.4,-17.1,4.28,-7.44,0,0,0,2.23,0.15,9.54,3.52449631690979
,0,-0.03,-0.1,-0.31,0.95,-0.95,1.85,0.22,6.09,-6.5,24.15,0,0,0,2.06,0.05,9.58,3.53981494903564
,0,-0.03,-0.09,-0.31,0.95,-0.02,1.28,-0.07,3.21,-3.44,8.23,0,0,0,1.75,0.04,9.64,3.55814719200134
,0,-0.02,-0.06,-0.31,0.95,0,2.86,-0.17,-1.18,-1.77,18.91,0,0,0,1.28,0.08,9.72,3.57474684715271
,0,-0.01,-0.06,-0.31,0.95,0.33,1.49,-0.22,-1.65,1.05,17.49,0,0,0,1.14,0.11,9.73,3.58970355987549
,0,-0.01,-0.05,-0.31,0.95,0.28,1.13,-0.17,-0.03,1.28,13.01,0,0,0,0.93,0.16,9.76,3.60782241821289
,0,-0,-0.04,-0.31,0.95,0.07,0.88,-0.08,2.25,1.74,11.4,0,0,0,0.74,0.17,9.77,3.62491512298584
,0,-0,-0.04,-0.31,0.95,0.09,0.47,-0.02,0.8,2.22,9.96,0,0,0,0.7,0.18,9.77,3.63977742195129
,0,0,-0.03,-0.31,0.95,0.05,0.37,0.04,-0.87,0.99,11.93,0,0,0,0.62,0.2,9.78,3.65805840492249
,0,0,-0.03,-0.31,0.95,0.12,0.17,-0.07,0.39,1.54,10.65,0,0,0,0.59,0.22,9.78,3.67458772659302
,0,0,-0.03,-0.31,0.95,0.05,0.12,-0.07,0.18,1.19,10.42,0,0,0,0.57,0.23,9.78,3.68956804275513
,0,0,-0.03,-0.31,0.95,0.01,0.01,-0.05,0.58,0.92,9.34,0,0,0,0.57,0.22,9.78,3.70814609527588
,0,0,-0.03,-0.31,0.95,-0.05,0.01,-0.07,0.77,0.71,10.19,0,0,0,0.58,0.22,9.78,3.72455215454102
,0,0,-0.03,-0.32,0.95,-0.07,-0.06,-0.07,0.55,0.96,9.94,0,0,0,0.59,0.21,9.78,3.74033451080322
,0,0,-0.03,-0.32,0.95,-0.04,-0.11,-0.05,0.77,1.09,9.68,0,0,0,0.6,0.2,9.78,3.75809526443481
,0,0,-0.03,-0.32,0.95,-0.03,0.04,-0.05,0.44,0.91,10.36,0,0,0,0.59,0.2,9.78,3.77511501312256
,0,0,-0.03,-0.32,0.95,-0.03,0.04,-0.04,-0.38,1.02,10.21,0,0,0,0.59,0.2,9.78,3.78986930847168
,0,-0,-0.03,-0.32,0.95,-0.03,-0.01,-0.04,0.22,0.99,10.09,0,0,0,0.6,0.19,9.78,3.80844449996948
,0,-0,-0.03,-0.32,0.95,-0.03,-0.03,-0.05,0.82,1.34,9.76,0,0,0,0.6,0.19,9.78,3.82541513442993
,0,-0,-0.03,-0.32,0.95,-0.06,0,-0.07,1.29,0.69,10.03,0,0,0,0.6,0.18,9.78,3.83976292610168
,0,-0,-0.03,-0.32,0.95,-0.06,0,-0.06,1.59,0.54,9.95,0,0,0,0.6,0.17,9.78,3.85793304443359
,0,-0,-0.03,-0.32,0.95,-0.05,0.02,-0.06,1.29,0.8,9.72,0,0,0,0.59,0.16,9.78,3.87498664855957
,0,-0,-0.03,-0.32,0.95,-0.03,0.04,-0.04,1.46,0.79,9.45,0,0,0,0.59,0.16,9.78,3.89019680023193
,0,-0,-0.03,-0.32,0.95,-0.04,0.08,-0.02,0.85,0.7,9.91,0,0,0,0.57,0.15,9.78,3.90818953514099
,0,-0,-0.03,-0.32,0.95,-0.03,0.09,-0.02,0.37,0.78,9.96,0,0,0,0.56,0.15,9.78,3.92560482025146
,0,-0,-0.03,-0.32,0.95,-0.02,0.07,-0.03,0.08,0.75,9.95,0,0,0,0.55,0.15,9.78,3.94087862968445
,0,-0,-0.03,-0.32,0.95,-0.01,0.03,-0.02,-0.05,0.92,9.82,0,0,0,0.54,0.15,9.79,3.95880126953125
,0,-0,-0.03,-0.32,0.95,-0.02,0.04,-0.03,0.39,0.52,9.92,0,0,0,0.53,0.14,9.79,3.97626519203186
,0,-0,-0.03,-0.32,0.95,-0.01,0.04,-0.04,0.85,0.81,9.77,0,0,0,0.53,0.15,9.79,3.99156737327576
,0,-0,-0.03,-0.32,0.95,-0.01,0.03,-0.05,0.9,0.7,9.81,0,0,0,0.53,0.15,9.79,4.00887417793274
,0,-0,-0.03,-0.32,0.95,-0.01,-0.02,-0.11,1.46,0.8,9.52,0,0,0,0.53,0.16,9.79,4.02613401412964
,0,-0,-0.03,-0.32,0.95,-0.02,0.04,-0.05,1.51,0.44,9.78,0,0,0,0.52,0.15,9.79,4.04177403450012
,0,-0,-0.03,-0.32,0.95,-0.01,0.04,-0.06,1.27,0.74,9.79,0,0,0,0.52,0.15,9.79,4.059406042099
,0,-0,-0.03,-0.32,0.95,-0.01,0.05,-0.06,1.14,0.76,9.86,0,0,0,0.52,0.16,9.79,4.0765528678894
,0,-0,-0.03,-0.32,0.95,-0.01,0.07,-0.05,0.8,0.78,9.73,0,0,0,0.51,0.16,9.79,4.09132599830627
,0,-0,-0.03,-0.32,0.95,-0,0.09,-0.05,0.46,0.48,9.76,0,0,0,0.5,0.16,9.79,4.10898470878601
,0,0,-0.03,-0.32,0.95,0.01,0.07,-0,0.61,0.73,9.79,0,0,0,0.48,0.16,9.79,4.12625885009766
,0,0,-0.03,-0.32,0.95,-0.02,0.13,-0.02,0.26,0.54,10.09,0,0,0,0.47,0.16,9.79,4.14201474189758
,0,0,-0.02,-0.32,0.95,0.01,0.11,0,0.57,0.76,9.61,0,0,0,0.45,0.16,9.79,4.15882062911987
,0,0,-0.02,-0.32,0.95,0.03,0.12,0.02,0.82,0.76,9.92,0,0,0,0.43,0.19,9.79,4.17650938034058
,0,0,-0.02,-0.32,0.95,0.03,0.14,0.03,0.3,0.86,9.84,0,0,0,0.41,0.21,9.79,4.1923131942749
,0,0.01,-0.02,-0.32,0.95,0.11,0.14,0.1,1.07,0.52,9.54,0,0,0,0.39,0.24,9.79,4.20909690856934
,0,0.01,-0.02,-0.32,0.95,0.16,0.25,0.04,1.77,0.77,9.37,0,0,0,0.32,0.25,9.79,4.22675943374634
,0,0.01,-0.02,-0.32,0.95,-0.11,0.45,-0.01,-0.48,0.81,10.27,0,0,0,0.28,0.24,9.79,4.24243330955505
,0,0.01,-0.01,-0.32,0.95,-0.1,0.47,0.07,1.22,1.95,9.26,0,0,0,0.18,0.23,9.8,4.25916481018066
,0,0.01,-0.01,-0.32,0.95,0,0.68,0.14,1.66,1.49,10.27,0,0,0,0.04,0.24,9.8,4.27638721466064
,0,0.01,-0,-0.32,0.95,0.02,0.84,0.01,0.2,0.98,9.63,0,0,0,-0.03,0.24,9.8,4.29217076301575
,0,0.02,0.01,-0.32,0.95,0.09,0.99,-0,0.49,0.78,10.46,0,0,0,-0.24,0.26,9.8,4.3093056678772
,0,0.02,0.02,-0.32,0.95,0.13,1.19,0.04,0.65,0.83,9.69,0,0,0,-0.49,0.27,9.79,4.32681965827942
,0,0.02,0.03,-0.32,0.95,-0.04,1.8,0,1.52,0.1,9.5,0,0,0,-0.66,0.27,9.78,4.34286713600159
,0,0.03,0.05,-0.32,0.95,-0.05,2.17,0.1,0.38,0.66,10.67,0,0,0,-1.08,0.25,9.74,4.35943984985352
,0,0.04,0.07,-0.31,0.95,-0.05,2.36,0.25,-0.69,0.84,11.05,0,0,0,-1.52,0.26,9.68,4.3769998550415
,0,0.04,0.08,-0.31,0.95,-0.35,2.49,0.23,3.59,1.47,9.98,0,0,0,-1.76,0.23,9.64,4.39298987388611
,0,0.05,0.12,-0.31,0.94,-0.35,3.15,-0.13,-1.89,-1.21,12.52,0,0,0,-2.44,0.15,9.49,4.4099006652832
,0,0.06,0.16,-0.32,0.93,0.01,4.55,-0.68,2.01,0.84,12.22,0,0,0,-3.31,0.1,9.22,4.42719078063965
,0,0.07,0.19,-0.32,0.93,0.58,6.13,-0.89,4.83,0.88,13.91,0,0,0,-3.85,0.12,9.01,4.44333815574646
,0,0.11,0.25,-0.32,0.91,1.56,7.16,-0.65,4.01,1.52,7.2,0,0,0,-5.07,0.29,8.38,4.4598970413208
,0,0.13,0.31,-0.34,0.88,1.37,8.01,-1.39,0.24,0.47,11.32,0,0,0,-6.23,0.26,7.56,4.47766995429993
,0,0.13,0.33,-0.35,0.87,-0.36,3.49,-3.84,-16.84,3.5,23.26,0,0,0,-6.49,0,7.34,4.49427890777588
,0,0.13,0.33,-0.36,0.86,-0.19,-0.13,-2.14,11.63,1.7,8.2,0,0,0,-6.4,-0.19,7.42,4.50996947288513
,0,0.12,0.32,-0.37,0.86,-0.11,-0.21,-1.12,9.21,7.43,5.79,0,0,0,-6.34,-0.33,7.46,4.52764081954956
,0,0.12,0.32,-0.37,0.86,0.06,-0.96,-0.55,5.62,6.78,10.02,0,0,0,-6.27,-0.36,7.52,4.54484272003174
,0,0.11,0.31,-0.38,0.87,0.15,-1.63,0.34,3.84,4.17,9.06,0,0,0,-6.06,-0.33,7.7,4.56040930747986
,0,0.11,0.29,-0.37,0.88,0.2,-1.98,0.66,3.37,3.03,8.98,0,0,0,-5.74,-0.2,7.94,4.57768154144287
,0,0.11,0.28,-0.37,0.88,0.37,-2.58,0.95,2.32,0.8,8.37,0,0,0,-5.54,-0.12,8.08,4.59422016143799
,0,0.1,0.25,-0.37,0.89,0.39,-2.78,0.95,0.68,-1,9.25,0,0,0,-5.08,0.02,8.38,4.61042594909668
,0,0.1,0.22,-0.36,0.9,0.24,-3.14,0.77,0.13,-1.64,9.66,0,0,0,-4.55,0.12,8.68,4.6276068687439
,0,0.09,0.2,-0.36,0.9,0.1,-3.5,0.41,-0.87,-2.14,10.01,0,0,0,-4.25,0.14,8.83,4.64501237869263
,0,0.08,0.17,-0.37,0.91,0.07,-3.63,0.21,-1.23,-1.43,10.03,0,0,0,-3.61,0.17,9.11,4.66031575202942
,0,0.07,0.14,-0.37,0.92,0.09,-3.74,-0.06,-1.47,-0.95,10.3,0,0,0,-2.94,0.18,9.35,4.67808413505554
,0,0.06,0.12,-0.37,0.92,0.19,-3.73,-0.08,-1.94,1.2,10.69,0,0,0,-2.6,0.2,9.45,4.69513964653015
,0,0.05,0.09,-0.37,0.92,0.24,-3.6,0.13,-2.26,1.6,10.93,0,0,0,-1.93,0.24,9.61,4.71058249473572
,0,0.04,0.06,-0.37,0.93,0.23,-3.48,0.24,-2.29,1.51,11.11,0,0,0,-1.29,0.29,9.71,4.72821974754333
,0,0.03,0.04,-0.37,0.93,0.18,-3.21,0.37,-2.61,1.84,13.98,0,0,0,-0.99,0.31,9.75,4.74541997909546
,0,0.02,0.01,-0.37,0.93,0.23,-3.36,0.51,-4.62,3.98,16.17,0,0,0,-0.37,0.36,9.79,4.76100397109985
,0,0.01,-0.02,-0.36,0.93,0.2,-3.54,0.67,-4.69,4.37,14.71,0,0,0,0.3,0.39,9.79,4.77854132652283
,0,0.01,-0.04,-0.36,0.93,0.1,-3.44,1,-5.6,3.43,12.32,0,0,0,0.63,0.4,9.77,4.79562664031982
,0,-0,-0.07,-0.35,0.94,0.15,-3.01,1.12,-7.47,1.95,11.28,0,0,0,1.23,0.4,9.72,4.81105256080627
,0,-0.01,-0.09,-0.34,0.94,0.14,-2.74,1.1,-8.26,1.38,10.43,0,0,0,1.72,0.4,9.64,4.82849168777466
,0,-0.01,-0.1,-0.33,0.94,-0.01,-1.86,0.99,-10.67,0.08,7.15,0,0,0,1.9,0.38,9.61,4.84565258026123
,0,-0.02,-0.11,-0.32,0.94,-0.01,-0.79,0.72,-13.22,-0.24,8.63,0,0,0,2.09,0.34,9.57,4.86102795600891
,0,-0.02,-0.11,-0.32,0.94,0.01,-0.51,0.58,-15.86,-0.27,12.07,0,0,0,2.19,0.33,9.55,4.87860321998596
,0,-0.02,-0.11,-0.32,0.94,0.14,-0.51,0.46,-14.82,0.94,5.13,0,0,0,2.24,0.33,9.53,4.89650940895081
,0,-0.02,-0.11,-0.31,0.94,0.01,0.56,0.45,-16.15,7.55,-1.67,0,0,0,2.2,0.32,9.55,4.91210603713989
,0,-0.03,-0.09,-0.31,0.95,-0.73,1.69,0.84,-14.81,3.67,-8.16,0,0,0,1.83,0.03,9.63,4.92916917800903
,0,-0.03,-0.08,-0.3,0.95,-0.73,1.66,0.66,6.69,-6.58,25.71,0,0,0,1.68,-0.04,9.66,4.94692730903625
,0,-0.03,-0.07,-0.3,0.95,-0.24,1.67,-0.1,3.77,-4.94,4.95,0,0,0,1.41,-0.09,9.7,4.96263933181763
,0,-0.02,-0.04,-0.31,0.95,-0.11,2.67,-0.19,-0.51,-1.95,15.73,0,0,0,0.94,-0.07,9.76,4.97967767715454
,0,-0.02,-0.04,-0.31,0.95,0.06,1.44,-0.12,-1.53,1.94,18.21,0,0,0,0.81,-0.07,9.77,4.99827313423157
,0,-0.02,-0.03,-0.31,0.95,-0.24,0.55,0.01,1.89,-3.03,14.95,0,0,0,0.68,-0.1,9.78,5.01330280303955
,0,-0.01,-0.03,-0.31,0.95,0.1,0.4,-0.06,-1.02,-0.33,10.83,0,0,0,0.59,-0.07,9.78,5.03029012680054
,0,-0.01,-0.03,-0.31,0.95,0.09,0.47,0.01,-0.4,1.1,10.27,0,0,0,0.54,-0.07,9.79,5.04783773422241
,0,-0.01,-0.02,-0.31,0.95,0.03,0.27,0,-0.16,0.95,11.03,0,0,0,0.5,-0.06,9.79,5.06486916542053
,0,-0.01,-0.02,-0.31,0.95,-0.01,0.09,-0.01,0.59,0.19,10.3,0,0,0,0.48,-0.07,9.79,5.08083891868591
,0,-0.01,-0.02,-0.31,0.95,-0.05,0.04,-0.16,0.93,1.1,9.89,0,0,0,0.48,-0.07,9.79,5.09802293777466
,0,-0.01,-0.02,-0.31,0.95,-0.04,0.05,-0.19,-0.17,0.59,10.32,0,0,0,0.47,-0.08,9.79,5.11539077758789
,0,-0.01,-0.02,-0.31,0.95,-0.03,-0.01,-0.14,0.37,0.66,10.03,0,0,0,0.47,-0.08,9.79,5.13129878044128
,0,-0.01,-0.02,-0.31,0.95,0.02,-0.04,-0.09,0.74,0.98,9.94,0,0,0,0.47,-0.08,9.79,5.14851093292236
,0,-0.01,-0.02,-0.31,0.95,0.09,-0.04,-0.07,0.84,0.33,9.86,0,0,0,0.48,-0.07,9.79,5.16571187973022
,0,-0.01,-0.02,-0.31,0.95,0.08,-0.11,-0.23,1.15,0.9,9.94,0,0,0,0.49,-0.05,9.79,5.18135094642639
,0,-0.01,-0.02,-0.31,0.95,0.05,0.05,-0.1,0.94,0.8,9.99,0,0,0,0.49,-0.04,9.79,5.19889903068542
,0,-0.01,-0.02,-0.32,0.95,0.04,0.08,-0.08,0.54,0.98,10.24,0,0,0,0.48,-0.03,9.79,5.21513485908508
,0,-0.01,-0.02,-0.32,0.95,0.07,0.04,-0.07,0.51,0.55,10.13,0,0,0,0.47,-0.02,9.79,5.23226928710938
,0,-0.01,-0.02,-0.32,0.95,0.05,0.04,-0.05,0.77,1.17,9.78,0,0,0,0.46,-0.01,9.79,5.24876976013184
,0,-0.01,-0.02,-0.32,0.95,0.03,0.06,-0.07,0.2,0.09,9.92,0,0,0,0.45,-0.01,9.79,5.26506376266479
,0,-0.01,-0.02,-0.32,0.95,0.06,0.09,-0.09,0.64,0.43,9.98,0,0,0,0.44,0,9.79,5.28104591369629
,0,-0.01,-0.02,-0.32,0.95,0.07,0.03,-0.05,0.53,0.73,9.52,0,0,0,0.44,0,9.79,5.29806613922119
,0,-0.01,-0.02,-0.32,0.95,0.06,0.03,-0.03,0.43,0.57,9.73,0,0,0,0.43,0.01,9.79,5.31439018249512
,0,-0.01,-0.02,-0.32,0.95,0.06,-0,-0.01,0.98,0.75,9.82,0,0,0,0.43,0.02,9.79,5.33095002174377
,0,-0.01,-0.02,-0.32,0.95,0.03,0.05,-0.03,0.76,0.55,9.91,0,0,0,0.43,0.02,9.79,5.3485689163208
,0,-0.01,-0.02,-0.32,0.95,0.03,0.04,-0.03,0.62,0.59,9.6,0,0,0,0.42,0.03,9.79,5.36441993713379
,0,-0,-0.02,-0.32,0.95,0.02,0.02,-0.03,0.92,0.55,9.83,0,0,0,0.42,0.04,9.79,5.38083696365356
,0,-0,-0.02,-0.32,0.95,0.01,0.04,-0.03,0.7,0.62,9.73,0,0,0,0.43,0.05,9.79,5.39846897125244
,0,-0,-0.02,-0.32,0.95,0.01,0.02,-0.01,0.56,0.62,9.5,0,0,0,0.43,0.08,9.79,5.41455459594727
,0,-0,-0.02,-0.32,0.95,0.01,0.04,-0.02,0.33,0.47,9.93,0,0,0,0.43,0.08,9.79,5.43148112297058
,0,-0,-0.02,-0.32,0.95,0.02,0.01,-0.01,0.63,0.51,9.79,0,0,0,0.43,0.08,9.79,5.45039439201355
,0,-0,-0.02,-0.32,0.95,0.04,0.01,0.01,0.72,0.71,9.48,0,0,0,0.44,0.11,9.79,5.46717214584351
,0,-0,-0.02,-0.32,0.95,0.03,0.03,0,0.7,0.45,9.75,0,0,0,0.44,0.13,9.79,5.48231744766235
,0,-0,-0.02,-0.32,0.95,0.04,0.02,0.01,0.57,0.78,9.84,0,0,0,0.44,0.14,9.79,5.49923062324524
,0,0,-0.02,-0.32,0.95,0.06,0.02,0.02,0.86,0.57,9.55,0,0,0,0.45,0.17,9.79,5.51495671272278
,0,0,-0.03,-0.32,0.95,0.02,0.05,-0.01,0.37,0.92,9.85,0,0,0,0.45,0.2,9.79,5.53175234794617
,0,0,-0.03,-0.32,0.95,0.04,0.04,0.01,0.51,0.7,9.76,0,0,0,0.45,0.2,9.79,5.54873871803284
,0,0,-0.02,-0.32,0.95,0.02,0.07,-0.01,0.55,0.77,9.84,0,0,0,0.43,0.21,9.79,5.5634548664093
,0,0,-0.02,-0.32,0.95,-0.01,0.1,-0.03,0.16,0.92,10.03,0,0,0,0.42,0.22,9.79,5.58241057395935
,0,0,-0.02,-0.32,0.95,0.09,0.03,-0.02,0.6,0.25,9.75,0,0,0,0.41,0.23,9.79,5.59847378730774
,0,0.01,-0.02,-0.32,0.95,0,0.2,-0.02,0.42,0.44,8.31,0,0,0,0.39,0.24,9.79,5.61410689353943
,0,0.01,-0.02,-0.32,0.95,0.02,0.29,-0.06,1.17,0.42,8.67,0,0,0,0.31,0.23,9.79,5.63135576248169
,0,0.01,-0.02,-0.32,0.95,-0.2,0.47,-0.06,0.38,0.48,11.51,0,0,0,0.27,0.21,9.8,5.64873266220093
,0,0.01,-0.01,-0.32,0.95,-0.15,0.66,0.01,1.24,0.88,10.84,0,0,0,0.17,0.18,9.8,5.66453576087952
,0,0.01,-0.01,-0.32,0.95,-0.16,0.69,0.01,0.09,1.12,11.52,0,0,0,0.04,0.18,9.8,5.68155097961426
,0,0.01,-0,-0.32,0.95,0.25,0.83,0.09,0.66,1.03,10.46,0,0,0,-0.03,0.2,9.8,5.69865655899048
,0,0.02,0.01,-0.32,0.95,0.24,1.07,0.14,0.07,0.42,10.12,0,0,0,-0.22,0.25,9.8,5.71415376663208
,0,0.02,0.02,-0.32,0.95,0.23,1.23,0.19,0.67,0.43,9.31,0,0,0,-0.47,0.28,9.79,5.73177170753479
,0,0.02,0.03,-0.32,0.95,-0.12,1.64,0.14,1.62,0.22,9.38,0,0,0,-0.63,0.27,9.78,5.74901103973389
,0,0.03,0.05,-0.31,0.95,-0.05,2.26,0.24,-1.29,0.82,10.27,0,0,0,-1.02,0.25,9.74,5.76396727561951
,0,0.03,0.07,-0.31,0.95,-0.11,2.3,0.15,-0.77,0.06,12.36,0,0,0,-1.43,0.23,9.69,5.78136467933655
,0,0.04,0.08,-0.31,0.95,-0.51,2.3,0.23,0.78,2.18,8.99,0,0,0,-1.65,0.18,9.66,5.79876518249512
,0,0.03,0.1,-0.31,0.95,-1.01,2.99,-0.26,3.95,0.81,10.48,0,0,0,-2.14,0.01,9.56,5.81419038772583
,0,0.04,0.14,-0.31,0.94,-1.26,3.74,-0.61,-0.69,-0.17,12.51,0,0,0,-2.86,-0.22,9.37,5.83215284347534
,0,0.04,0.16,-0.31,0.93,-1.16,4.18,-0.75,2.19,1.13,11.62,0,0,0,-3.23,-0.35,9.25,5.84904336929321
,0,0.04,0.21,-0.32,0.92,-0.35,5.67,-0.75,4.35,-2.23,10.58,0,0,0,-4.12,-0.57,8.87,5.86459970474243
,0,0.07,0.27,-0.33,0.9,1.39,6.73,-0.39,3.08,-1.19,9.65,0,0,0,-5.24,-0.45,8.27,5.88219904899597
,0,0.09,0.3,-0.34,0.89,1.67,7.09,-2.29,2.74,-5.92,26.26,0,0,0,-5.79,-0.44,7.89,5.89960074424744
,0,0.1,0.33,-0.36,0.86,0.45,2.62,-3.64,-12.55,1.44,26.49,0,0,0,-6.36,-0.66,7.42,5.91429305076599
,0,0.1,0.33,-0.38,0.86,0.11,0.03,-1.89,9.01,3.28,11.42,0,0,0,-6.3,-0.83,7.46,5.9323468208313
,0,0.09,0.33,-0.38,0.86,0.16,-0.32,-0.98,4.02,3.95,10.81,0,0,0,-6.27,-0.88,7.48,5.94997501373291
,0,0.09,0.32,-0.39,0.86,0.51,-1.07,-0.34,5.27,3.88,9.15,0,0,0,-6.12,-0.88,7.6,5.96532797813416
,0,0.09,0.31,-0.39,0.86,0.58,-1.36,-0.01,4.71,3.06,9.61,0,0,0,-5.89,-0.77,7.79,5.98185062408447
,0,0.09,0.3,-0.39,0.87,0.73,-2.07,0.51,2.94,0.97,10.18,0,0,0,-5.74,-0.69,7.91,5.99893593788147
,0,0.09,0.27,-0.39,0.88,0.78,-2.77,0.76,1.99,-0.22,9.35,0,0,0,-5.34,-0.49,8.2,6.01434731483459
,0,0.09,0.24,-0.39,0.89,0.75,-3.02,0.8,1.32,-0.77,9.21,0,0,0,-5.1,-0.39,8.36,6.03222346305847
,0,0.08,0.22,-0.38,0.89,0.65,-3.37,0.71,0.02,-1.46,8.67,0,0,0,-4.56,-0.21,8.67,6.04927492141724
,0,0.08,0.19,-0.38,0.9,0.48,-3.5,0.54,-0.41,-1.58,9.58,0,0,0,-3.97,-0.07,8.96,6.06411242485046
,0,0.07,0.16,-0.38,0.91,0.41,-3.56,0.45,-1.09,-1.53,10.9,0,0,0,-3.65,-0.01,9.09,6.08241939544678
,0,0.06,0.14,-0.38,0.91,0.4,-3.72,0.25,-1.48,-0.51,11.7,0,0,0,-3,0.07,9.33,6.0997838973999
,0,0.05,0.11,-0.38,0.92,0.37,-3.82,0.25,-2.04,1.38,13.28,0,0,0,-2.3,0.15,9.53,6.11544895172119
,0,0.04,0.07,-0.38,0.92,0.33,-3.88,0.32,-2.13,1.75,13.48,0,0,0,-1.94,0.19,9.6,6.13242673873901
,0,0.04,0.05,-0.38,0.92,0.26,-3.92,0.57,-2.35,2.88,13.66,0,0,0,-1.21,0.25,9.72,6.1496729850769
,0,0.02,0.02,-0.37,0.93,0.08,-3.85,0.9,-3.06,3.45,13.61,0,0,0,-0.47,0.29,9.79,6.1652684211731
,0,0.01,-0.02,-0.37,0.93,0.01,-3.77,1.02,-3.17,3.49,13.27,0,0,0,-0.11,0.29,9.8,6.18305563926697
,0,0,-0.03,-0.36,0.93,-0.11,-3.5,1.14,-4.75,2.74,14.32,0,0,0,0.56,0.27,9.78,6.20022201538086
,0,-0.01,-0.06,-0.35,0.93,0.03,-3.33,1.13,-6.08,3.13,13.02,0,0,0,1.21,0.25,9.72,6.21471500396729
,0,-0.02,-0.09,-0.34,0.94,0.11,-3.13,1.13,-6.88,3.23,11.99,0,0,0,1.5,0.24,9.68,6.23318815231323
,0,-0.02,-0.1,-0.33,0.94,0.26,-2.48,1.15,-9.35,2.3,9.4,0,0,0,2.01,0.25,9.59,6.25007820129395
,0,-0.03,-0.12,-0.32,0.94,0.38,-1.69,1.04,-12.17,0.35,8.95,0,0,0,2.36,0.27,9.51,6.26532077789307
,0,-0.03,-0.13,-0.31,0.94,0.39,-1.25,0.92,-13.3,-1.08,10.05,0,0,0,2.48,0.28,9.48,6.28296279907227
,0,-0.02,-0.14,-0.31,0.94,0.76,-0.75,0.54,-15.21,-0.42,7.49,0,0,0,2.64,0.37,9.43,6.29974985122681
,0,-0.02,-0.14,-0.31,0.94,0.87,-0.02,0.33,-14.23,1.58,4.49,0,0,0,2.69,0.51,9.41,6.31532192230225
,0,-0.01,-0.13,-0.3,0.94,0.7,0.45,0.35,-13.01,2.48,4.86,0,0,0,2.65,0.56,9.42,6.33383440971375
,0,-0.01,-0.13,-0.3,0.94,-0.18,1.27,0.56,-11.88,7.51,7.72,0,0,0,2.44,0.55,9.48,6.35026025772095
,0,-0.02,-0.12,-0.29,0.95,-0.9,0.43,1.29,13.11,2.45,17.13,0,0,0,2.3,0.34,9.52,6.36520195007324
,0,-0.02,-0.11,-0.29,0.95,-0.88,0.67,0.99,8.9,1.54,5.17,0,0,0,2.24,0.24,9.54,6.38401174545288
,0,-0.02,-0.09,-0.28,0.95,-0.43,3.24,0.42,-2.04,-12.96,11.5,0,0,0,1.79,0.08,9.63,6.40098428726196
,0,-0.01,-0.06,-0.29,0.96,0.26,2.62,-0.55,-3.8,-2.54,21.06,0,0,0,1.22,0.11,9.72,6.41613984107971
,0,-0,-0.05,-0.29,0.96,0.34,1.7,-0.48,2.07,2.98,13.36,0,0,0,1.06,0.15,9.74,6.43439912796021
,0,-0,-0.04,-0.29,0.96,0.04,1.03,-0.11,2.95,-1.35,18.32,0,0,0,0.84,0.19,9.76,6.45075488090515
,0,-0,-0.04,-0.29,0.96,-0.02,-0,0.03,4.95,2.46,9.1,0,0,0,0.76,0.18,9.77,6.46601319313049
,0,-0,-0.03,-0.29,0.96,0,0.67,0.13,-1.38,0.61,13.74,0,0,0,0.7,0.18,9.77,6.48450446128845
,0,-0,-0.03,-0.29,0.96,0.01,0.17,0.03,2.34,1.18,9.76,0,0,0,0.64,0.18,9.78,6.50078344345093
,0,-0,-0.03,-0.29,0.96,-0.09,-0.09,-0,2.03,0.85,8.94,0,0,0,0.62,0.16,9.78,6.5155987739563
,0,-0,-0.03,-0.29,0.96,-0.09,0.1,-0.03,0.49,0.53,9.94,0,0,0,0.61,0.15,9.78,6.53436088562012
,0,-0,-0.03,-0.29,0.96,-0.08,-0.04,-0.13,0.59,0.47,9.89,0,0,0,0.61,0.14,9.78,6.55063676834106
,0,-0,-0.03,-0.29,0.96,-0.03,-0.13,-0.15,0.74,0.7,9.81,0,0,0,0.63,0.13,9.78,6.56561231613159
,0,-0,-0.03,-0.29,0.95,-0.02,-0.09,-0.12,0.56,0.28,10.31,0,0,0,0.64,0.13,9.78,6.58420133590698
,0,-0,-0.03,-0.3,0.95,0.06,-0.06,-0.09,0.59,0.54,10.1,0,0,0,0.66,0.14,9.78,6.60058569908142
,0,-0,-0.03,-0.3,0.95,0.08,0,-0.05,0.43,0.49,9.65,0,0,0,0.65,0.16,9.78,6.61570310592651
,0,-0,-0.03,-0.3,0.95,0.08,-0.05,-0.03,1.3,0.7,9.56,0,0,0,0.66,0.17,9.78,6.63430213928223
,0,-0,-0.03,-0.3,0.95,0.06,-0,-0.04,0.97,0.94,9.93,0,0,0,0.65,0.18,9.78,6.65042972564697
,0,-0,-0.04,-0.3,0.95,0.06,-0.02,-0.05,1.25,0.52,10.04,0,0,0,0.66,0.19,9.78,6.66579580307007
,0,-0,-0.04,-0.3,0.95,0.04,-0.01,-0.05,1.46,0.7,9.78,0,0,0,0.66,0.19,9.78,6.68450617790222
,0,0,-0.04,-0.3,0.95,0.03,0.04,-0.04,1.11,0.8,9.68,0,0,0,0.65,0.2,9.78,6.70084309577942
,0,0,-0.03,-0.3,0.95,0.03,0.07,-0.04,1.1,0.63,9.56,0,0,0,0.64,0.21,9.78,6.71559190750122
,0,0,-0.03,-0.3,0.95,0.02,0.08,-0.02,0.89,0.74,9.85,0,0,0,0.64,0.22,9.78,6.7343807220459
,0,0,-0.03,-0.3,0.95,0.02,0.07,-0.02,0.48,0.76,10.16,0,0,0,0.63,0.22,9.78,6.75111317634583
,0,0,-0.03,-0.3,0.95,0.02,0.03,-0.02,0.24,0.73,9.98,0,0,0,0.62,0.23,9.78,6.76627111434937
,0,0,-0.03,-0.3,0.95,0.02,0.03,-0.02,0.67,0.8,9.89,0,0,0,0.61,0.23,9.78,6.7853410243988
,0,0,-0.03,-0.3,0.95,0.02,0.01,-0.01,1.07,0.78,9.92,0,0,0,0.61,0.23,9.78,6.8043360710144
,0,0,-0.03,-0.3,0.95,0.01,0.02,-0.01,1.05,0.65,9.58,0,0,0,0.61,0.24,9.78,6.82247233390808
,0,0,-0.03,-0.3,0.95,-0,0.02,-0.01,1.1,0.88,9.78,0,0,0,0.6,0.24,9.78,6.8401837348938
,0,0,-0.03,-0.3,0.95,-0,0.01,-0.02,1.11,0.83,9.8,0,0,0,0.6,0.24,9.78,6.85817122459412
,0,0,-0.03,-0.3,0.95,-0.02,0.02,-0.02,1.05,0.76,9.51,0,0,0,0.62,0.26,9.78,6.87494301795959
,0,0,-0.03,-0.3,0.95,-0.01,0.03,-0.03,0.94,0.88,9.58,0,0,0,0.62,0.27,9.78,6.89152717590332
,0,0,-0.03,-0.3,0.95,-0.03,0.06,-0.03,0.38,0.73,9.87,0,0,0,0.61,0.28,9.78,6.90929484367371
,0,0,-0.03,-0.3,0.95,-0.04,0.06,-0.04,0.42,0.7,9.88,0,0,0,0.6,0.27,9.78,6.92556953430176
,0,0,-0.03,-0.3,0.95,-0.04,0.05,-0.05,0.75,0.78,9.67,0,0,0,0.6,0.27,9.78,6.94109773635864
,0,0,-0.03,-0.3,0.95,-0.05,0.06,-0.04,0.95,0.76,9.71,0,0,0,0.59,0.26,9.78,6.95969080924988
,0,0,-0.03,-0.3,0.95,-0.04,0.06,-0.03,0.85,0.7,9.69,0,0,0,0.58,0.25,9.78,6.97594881057739
,0,0,-0.03,-0.3,0.95,-0.02,0.06,-0.01,1.01,0.81,9.91,0,0,0,0.58,0.26,9.78,6.99178695678711
,0,0,-0.03,-0.3,0.95,0,0.06,0.03,0.99,0.73,9.75,0,0,0,0.58,0.28,9.78,7.00889205932617
,0,0.01,-0.03,-0.3,0.95,0,0.06,0.06,1.08,0.58,9.78,0,0,0,0.58,0.29,9.78,7.02553272247314
,0,0.01,-0.03,-0.3,0.95,0.01,0.08,0.08,0.6,0.53,9.71,0,0,0,0.57,0.3,9.78,7.04154181480408
,0,0.01,-0.03,-0.3,0.95,0.01,0.1,0.06,-0.02,0.26,9.56,0,0,0,0.55,0.3,9.78,7.05944609642029
,0,0.01,-0.03,-0.3,0.95,0.1,0.2,0,0.67,0.68,9.4,0,0,0,0.51,0.32,9.78,7.07511496543884
,0,0.01,-0.03,-0.3,0.95,-0.01,0.42,0.07,0.37,0.44,10.63,0,0,0,0.47,0.32,9.79,7.09139537811279
,0,0.01,-0.02,-0.3,0.95,-0.12,0.47,0.04,0.41,1.25,10.11,0,0,0,0.38,0.3,9.79,7.10982346534729
,0,0.01,-0.02,-0.3,0.95,0.1,0.46,-0.01,1.43,1.41,9.32,0,0,0,0.28,0.32,9.79,7.12593865394592
,0,0.01,-0.02,-0.3,0.95,-0,0.7,0.18,1.35,0.55,10.55,0,0,0,0.21,0.32,9.79,7.14155888557434
,0,0.02,-0.01,-0.3,0.96,0.07,0.66,0.03,1.22,0.96,10.2,0,0,0,0.08,0.34,9.8,7.15977764129639
,0,0.02,0,-0.3,0.96,-0.01,1.03,0.03,0.77,0.58,10.38,0,0,0,-0.12,0.34,9.79,7.17617964744568
,0,0.02,0.01,-0.29,0.96,0.08,1.36,0.17,0.81,0.64,9.28,0,0,0,-0.25,0.35,9.79,7.1916446685791
,0,0.03,0.02,-0.29,0.96,0.03,1.62,0.23,-0.12,0.97,10.7,0,0,0,-0.57,0.36,9.78,7.21023535728455
,0,0.03,0.04,-0.29,0.96,0.07,1.99,0.24,-0.15,0.59,10.07,0,0,0,-0.94,0.38,9.75,7.22615265846252
,0,0.04,0.05,-0.29,0.96,0.06,2.12,0.21,-0.07,0.81,12.27,0,0,0,-1.14,0.38,9.73,7.24201083183289
,0,0.04,0.07,-0.28,0.96,0.04,2.17,0.31,2.61,0.71,9.56,0,0,0,-1.55,0.41,9.67,7.26040410995483
,0,0.05,0.1,-0.28,0.95,0.07,2.79,0.18,7.14,-0.41,11.43,0,0,0,-2.19,0.46,9.54,7.27665233612061
,0,0.07,0.12,-0.28,0.95,0.97,4.66,-0.6,2.38,-0.93,10.45,0,0,0,-2.62,0.53,9.43,7.29230380058289
,0,0.09,0.17,-0.29,0.94,1.22,4.92,-0.73,1.18,3.87,15.13,0,0,0,-3.6,0.77,9.08,7.31063628196716
,0,0.13,0.23,-0.29,0.92,1.81,6.8,-0.81,5.14,1.96,11.18,0,0,0,-4.85,1,8.46,7.32713413238525
,0,0.15,0.26,-0.29,0.91,2.05,8.4,-0.59,1.17,1.51,6.48,0,0,0,-5.52,1.13,8.01,7.34234881401062
,0,0.18,0.33,-0.3,0.88,1.76,8.56,-0.62,-14.62,-0.98,39.52,0,0,0,-6.7,1.22,7.05,7.36050534248352
,0,0.17,0.34,-0.32,0.86,-0.01,2.6,-3.96,-12.11,5.16,26.16,0,0,0,-6.92,0.68,6.9,7.37658286094666
,0,0.16,0.34,-0.33,0.87,-0.76,-2.02,-0.81,11.19,3.28,6.46,0,0,0,-6.79,0.57,7.04,7.39220786094666
,0,0.14,0.33,-0.34,0.87,-0.95,-2.14,-1.2,4.94,3.56,7.95,0,0,0,-6.54,0.29,7.29,7.41078758239746
,0,0.13,0.31,-0.35,0.87,-0.71,-1.74,-0.88,5.25,5.31,7.82,0,0,0,-6.27,0.11,7.53,7.42715334892273
,0,0.12,0.31,-0.35,0.88,-0.4,-2.21,-0.21,4.85,5.06,8.18,0,0,0,-6.1,0.06,7.67,7.4425687789917
,0,0.12,0.28,-0.35,0.89,-0.24,-2.47,0.14,3.75,3.79,10.42,0,0,0,-5.71,0.07,7.97,7.46025466918945
,0,0.11,0.25,-0.34,0.9,0.06,-3.16,0.66,2.54,2.46,10.55,0,0,0,-5.17,0.17,8.32,7.47717046737671
,0,0.1,0.24,-0.34,0.9,0.11,-3.86,0.92,1.31,0.91,8.93,0,0,0,-4.86,0.22,8.51,7.49271392822266
,0,0.09,0.2,-0.34,0.92,0.06,-4.04,0.92,-0.16,-1.8,8.69,0,0,0,-4.17,0.3,8.86,7.51102662086487
,0,0.08,0.16,-0.34,0.92,-0.04,-4.09,0.64,-1.08,-2.25,9.27,0,0,0,-3.45,0.33,9.17,7.527019739151
,0,0.07,0.14,-0.34,0.93,0.05,-4.13,0.09,-1.77,-1.76,10.04,0,0,0,-3.08,0.34,9.3,7.5428295135498
,0,0.06,0.11,-0.34,0.93,0.1,-4.09,-0.13,-1.93,0.13,11.65,0,0,0,-2.34,0.35,9.51,7.56074953079224
,0,0.05,0.07,-0.35,0.93,0.15,-3.95,-0.24,-1.81,0.3,12.42,0,0,0,-1.62,0.38,9.66,7.57726621627808
,0,0.04,0.05,-0.35,0.93,0.29,-3.75,-0.2,-2.98,2.32,16.09,0,0,0,-1.27,0.4,9.71,7.59281134605408
,0,0.03,0.02,-0.35,0.94,0.26,-3.64,-0.14,-5.6,4.18,18.29,0,0,0,-0.58,0.45,9.77,7.6108500957489
,0,0.02,-0.02,-0.35,0.94,0.17,-3.8,0.22,-6.7,4.89,17.47,0,0,0,0.15,0.47,9.79,7.62747573852539
,0,0.01,-0.03,-0.35,0.94,0.09,-3.83,0.71,-8.68,4.16,12.46,0,0,0,0.51,0.48,9.78,7.64279103279114
,0,0,-0.07,-0.34,0.94,0.08,-3.62,0.91,-9.16,3.74,11.63,0,0,0,1.17,0.48,9.72,7.66056871414185
,0,-0.01,-0.09,-0.33,0.94,0.01,-2.94,1.09,-10.48,1.9,9.37,0,0,0,1.7,0.44,9.64,7.6771137714386
,0,-0.01,-0.1,-0.32,0.94,-0.02,-2.1,0.96,-10.79,1.44,8.9,0,0,0,1.9,0.43,9.61,7.69271945953369
,0,-0.02,-0.11,-0.32,0.94,0,-1.62,0.8,-12.68,1.1,9.64,0,0,0,2.17,0.41,9.55,7.7108690738678
,0,-0.02,-0.12,-0.31,0.94,0.22,-0.95,0.46,-13.47,-0.17,10.94,0,0,0,2.33,0.45,9.51,7.72802352905273
,0,-0.01,-0.13,-0.31,0.94,0.65,-0.75,0.09,-14.25,0.7,6.96,0,0,0,2.4,0.51,9.49,7.74277472496033
,0,-0.01,-0.13,-0.31,0.94,0.68,-0.76,0.06,-13.64,1.27,5.63,0,0,0,2.5,0.62,9.45,7.7610297203064
,0,-0.01,-0.13,-0.31,0.94,0.25,-0.01,0.23,-13.38,2.79,3.89,0,0,0,2.46,0.61,9.47,7.77762150764465
,0,-0.01,-0.12,-0.3,0.94,-0.77,1.13,0.87,0.41,-3.41,0.05,0,0,0,2.36,0.52,9.5,7.79302287101746
,0,-0.02,-0.1,-0.3,0.95,-2.14,1.43,1.39,8.61,-5.82,20.93,0,0,0,2.08,0.16,9.58,7.81117129325867
,0,-0.02,-0.08,-0.3,0.95,-0.58,1.92,0.25,0.66,-10.97,0.54,0,0,0,1.63,0.09,9.66,7.8279504776001
,0,-0.01,-0.07,-0.3,0.95,0.11,3.52,-0.19,-2.22,-4.32,22.99,0,0,0,1.3,0.1,9.71,7.84263706207275
,0,-0,-0.05,-0.3,0.95,0.53,2.84,-0.55,-4.33,2.67,23.18,0,0,0,0.89,0.19,9.76,7.8612744808197
,0,-0,-0.04,-0.3,0.95,0.08,0.37,-0.13,4.67,-0.4,15.49,0,0,0,0.78,0.19,9.77,7.87811660766602
,0,-0,-0.04,-0.3,0.95,0.08,-0.12,0.03,1.72,1.14,8.18,0,0,0,0.79,0.2,9.77,7.89300632476807
,0,0,-0.04,-0.3,0.95,0.16,0.25,0.15,-1.88,1.31,13.77,0,0,0,0.7,0.22,9.77,7.91087174415588
,0,0,-0.04,-0.3,0.95,0.09,0.18,0.03,1.84,1.9,9.83,0,0,0,0.65,0.22,9.78,7.92785263061523
,0,0,-0.04,-0.3,0.95,-0.06,0.06,0,0.9,1.17,9.33,0,0,0,0.65,0.22,9.78,7.94343829154968
,0,-0,-0.03,-0.3,0.95,-0.11,0.07,-0.02,0.54,0.59,9.62,0,0,0,0.64,0.2,9.78,7.9607150554657
,0,-0,-0.03,-0.3,0.95,-0.1,0.03,-0.06,0.05,0.43,10.22,0,0,0,0.64,0.18,9.78,7.97738575935364
,0,-0,-0.03,-0.3,0.95,-0.08,-0.03,-0.13,-0.06,0.65,10.6,0,0,0,0.64,0.17,9.78,7.99296259880066
,0,-0,-0.03,-0.3,0.95,-0.07,-0.06,-0.11,0.26,0.3,10.43,0,0,0,0.65,0.16,9.78,8.01135110855103
,0,-0,-0.03,-0.3,0.95,-0.05,-0.03,-0.08,0.68,0.4,10.4,0,0,0,0.66,0.15,9.78,8.02801728248596
,0,-0,-0.04,-0.3,0.95,-0.01,-0.03,-0.06,0.99,0.76,10.13,0,0,0,0.67,0.15,9.78,8.04278373718262
,0,-0,-0.04,-0.3,0.95,0,-0.01,-0.04,1.15,1.24,9.93,0,0,0,0.67,0.15,9.78,8.06124305725098
,0,-0,-0.03,-0.3,0.95,-0.02,-0.01,-0.03,1.55,0.81,9.6,0,0,0,0.66,0.15,9.78,8.07767987251282
,0,-0,-0.03,-0.3,0.95,-0.03,0.04,-0.03,1.23,0.79,9.88,0,0,0,0.66,0.15,9.78,8.09330773353577
,0,-0,-0.03,-0.31,0.95,-0.05,0.05,-0.03,1.27,0.48,9.83,0,0,0,0.65,0.14,9.78,8.11163020133972
,0,-0,-0.03,-0.31,0.95,-0.04,0.08,-0.04,1.11,0.77,9.82,0,0,0,0.64,0.14,9.78,8.12806153297424
,0,-0,-0.03,-0.31,0.95,-0.04,0.11,-0.03,0.52,0.58,10,0,0,0,0.63,0.14,9.78,8.14401030540466
,0,-0,-0.03,-0.31,0.95,-0.04,0.09,-0.03,0.7,0.54,9.83,0,0,0,0.63,0.13,9.78,8.16086411476135
,0,-0,-0.03,-0.31,0.95,-0.04,0.09,-0.02,0.62,0.41,9.66,0,0,0,0.61,0.13,9.78,8.17793297767639
,0,-0,-0.03,-0.31,0.95,-0.03,0.09,-0.02,0.39,0.55,10.12,0,0,0,0.59,0.12,9.78,8.1932258605957
,0,-0,-0.03,-0.31,0.95,-0.02,0.04,-0.02,0.78,0.55,9.65,0,0,0,0.58,0.12,9.78,8.21140909194946
,0,-0,-0.03,-0.31,0.95,-0.01,0.02,-0.02,0.75,0.67,9.55,0,0,0,0.58,0.12,9.78,8.22825574874878
,0,-0,-0.03,-0.31,0.95,-0,0.03,-0.02,0.8,0.64,9.75,0,0,0,0.58,0.12,9.78,8.24362897872925
,0,-0,-0.03,-0.31,0.95,-0.01,0.01,-0.03,1.51,0.46,9.67,0,0,0,0.57,0.12,9.78,8.26137351989746
,0,-0,-0.03,-0.31,0.95,-0.01,0.03,-0.04,1.3,0.5,9.74,0,0,0,0.57,0.12,9.78,8.27884006500244
,0,-0,-0.03,-0.31,0.95,0,0.03,-0.01,1.27,0.46,9.65,0,0,0,0.57,0.12,9.78,8.29409623146057
,0,-0,-0.03,-0.31,0.95,0.02,0.04,-0.01,1.18,0.67,9.9,0,0,0,0.56,0.12,9.78,8.31190919876099
,0,-0,-0.03,-0.31,0.95,0.02,0.04,-0.01,0.96,0.62,9.8,0,0,0,0.58,0.14,9.78,8.32852983474731
,0,-0,-0.03,-0.31,0.95,0.01,0.06,0,0.54,0.64,9.7,0,0,0,0.57,0.14,9.78,8.34326076507568
,0,-0,-0.03,-0.31,0.95,0.02,0.05,0.01,0.55,0.57,9.82,0,0,0,0.57,0.14,9.78,8.36132001876831
,0,-0,-0.03,-0.31,0.95,0.01,0.07,0,0.31,0.54,9.93,0,0,0,0.56,0.15,9.78,8.3782594203949
,0,-0,-0.03,-0.31,0.95,0.02,0.06,0,0.15,0.68,9.88,0,0,0,0.55,0.15,9.78,8.39323472976685
,0,-0,-0.03,-0.31,0.95,0,0.04,0,0.96,0.98,9.78,0,0,0,0.54,0.15,9.79,8.41145277023315
,0,-0,-0.03,-0.31,0.95,0.04,0.05,0.04,1.2,0.34,9.62,0,0,0,0.54,0.16,9.79,8.42937445640564
,0,-0,-0.03,-0.31,0.95,-0.01,0.09,0,0.82,0.68,9.97,0,0,0,0.52,0.16,9.79,8.44445085525513
,0,0,-0.03,-0.31,0.95,0.02,0.09,0.06,0.59,0.41,9.78,0,0,0,0.5,0.17,9.79,8.46207737922668
,0,0,-0.03,-0.31,0.95,0.08,0.09,0.08,0.8,0.46,9.68,0,0,0,0.49,0.17,9.79,8.47904229164124
,0,0,-0.03,-0.31,0.95,0.11,0.15,-0.02,1.06,0.87,8.59,0,0,0,0.47,0.19,9.79,8.49399948120117
,0,0,-0.02,-0.31,0.95,0.05,0.27,0.02,1.25,0.79,9.56,0,0,0,0.44,0.2,9.79,8.51179647445679
,0,0,-0.02,-0.31,0.95,0,0.34,0.03,0.83,1.56,9.44,0,0,0,0.37,0.19,9.79,8.52888131141663
,0,0,-0.02,-0.3,0.95,-0.1,0.47,0.16,1.9,1.4,10.63,0,0,0,0.29,0.17,9.8,8.54407596588135
,0,0.01,-0.01,-0.3,0.95,-0.1,0.62,0.2,1.03,0.76,9.85,0,0,0,0.23,0.16,9.8,8.56188774108887
,0,0.01,-0,-0.3,0.95,0.09,0.72,0.02,1.49,1.01,10.04,0,0,0,0.11,0.18,9.8,8.57922625541687
,0,0.01,0,-0.3,0.95,-0,1.08,0.09,0.61,0.87,9.4,0,0,0,-0.07,0.18,9.8,8.59398794174194
,0,0.01,0.01,-0.3,0.95,0.07,1.13,0.01,1.15,0.87,9.36,0,0,0,-0.18,0.19,9.8,8.61189413070679
,0,0.02,0.03,-0.3,0.95,0.06,1.78,0.18,0.41,-0.07,10.36,0,0,0,-0.49,0.19,9.79,8.62969779968262
,0,0.02,0.04,-0.3,0.95,0.13,2.08,0.13,0.62,-0.09,9.64,0,0,0,-0.87,0.22,9.76,8.64450883865356
,0,0.03,0.06,-0.3,0.95,0.09,2.15,0.03,1.32,-0.35,9.76,0,0,0,-1.29,0.23,9.71,8.66185760498047
,0,0.04,0.08,-0.29,0.95,-0.04,2.35,0.75,3.96,-0.92,9.68,0,0,0,-1.51,0.24,9.68,8.6797730922699
,0,0.05,0.1,-0.29,0.95,0.87,3.94,-0.29,-1.81,0.17,11.55,0,0,0,-2.13,0.33,9.56,8.69522452354431
,0,0.08,0.14,-0.3,0.94,1.35,4.74,-0.47,2.11,-2.79,11.11,0,0,0,-3.04,0.61,9.3,8.71226143836975
,0,0.12,0.19,-0.3,0.93,2.89,5.85,-1,2.59,5.9,13.71,0,0,0,-3.57,0.84,9.09,8.73031830787659
,0,0.14,0.22,-0.3,0.92,2.51,7,-0.4,3.91,2.14,11.15,0,0,0,-4.72,1.25,8.5,8.74652242660522
,0,0.18,0.27,-0.31,0.9,2.2,6.9,-0.38,-7.28,-3.89,30.49,0,0,0,-5.73,1.49,7.8,8.76315569877625
,0,0.17,0.29,-0.32,0.88,0.08,3.29,-2.51,-10.63,0.77,26.67,0,0,0,-6.08,1.16,7.6,8.7803795337677
,0,0.17,0.29,-0.33,0.88,-0.51,-0.83,-1.61,9.16,2.64,9.93,0,0,0,-6.04,1.03,7.65,8.7963125705719
,0,0.15,0.28,-0.34,0.88,-0.76,-1.01,-1.42,4.73,4.63,8.59,0,0,0,-5.92,0.75,7.78,8.81311464309692
,0,0.14,0.27,-0.35,0.89,-0.85,-1.34,-1.03,5.68,5.04,6.51,0,0,0,-5.82,0.63,7.86,8.83048319816589
,0,0.13,0.27,-0.35,0.89,-0.62,-1.45,-0.38,4.64,4.66,7.08,0,0,0,-5.61,0.47,8.02,8.84672498703003
,0,0.13,0.26,-0.35,0.89,-0.41,-1.65,-0.08,3.41,3.65,8.71,0,0,0,-5.33,0.42,8.21,8.86292695999146
,0,0.12,0.24,-0.35,0.9,-0.1,-2.13,0.44,2.74,2.69,9.32,0,0,0,-5.16,0.44,8.32,8.88062024116516
,0,0.11,0.22,-0.35,0.9,0,-2.71,0.68,1.38,0.93,9.59,0,0,0,-4.73,0.49,8.57,8.89624309539795
,0,0.11,0.2,-0.35,0.91,0.05,-2.99,0.67,0.36,0.32,8.85,0,0,0,-4.2,0.56,8.83,8.91332626342773
,0,0.1,0.16,-0.34,0.92,0.08,-3.33,0.54,-0.1,0.53,8.8,0,0,0,-3.91,0.59,8.96,8.93055272102356
,0,0.09,0.15,-0.34,0.92,-0.03,-3.41,0.41,-0.78,0.72,11,0,0,0,-3.31,0.62,9.2,8.9471001625061
,0,0.08,0.12,-0.34,0.93,-0.04,-3.47,0.35,-0.93,1.26,11.72,0,0,0,-2.67,0.63,9.41,8.96358370780945
,0,0.07,0.09,-0.34,0.93,-0.01,-3.61,0.33,-1.13,1.87,12.06,0,0,0,-2.34,0.64,9.49,8.98075342178345
,0,0.06,0.07,-0.34,0.93,-0,-3.67,0.47,-1.27,2.61,12.89,0,0,0,-1.66,0.66,9.64,8.99664688110352
,0,0.05,0.03,-0.34,0.94,0.02,-3.67,0.57,-1.41,3.12,13.2,0,0,0,-0.97,0.68,9.73,9.01299238204956
,0,0.04,0,-0.33,0.94,-0.01,-3.6,0.8,-2.01,3.66,14.09,0,0,0,-0.62,0.68,9.76,9.03115010261536
,0,0.03,-0.01,-0.33,0.94,-0.15,-3.52,1,-3.44,3.74,15.12,0,0,0,0.05,0.67,9.78,9.04752802848816
,0,0.02,-0.05,-0.32,0.95,-0.18,-3.55,1.07,-5.19,3.92,13.01,0,0,0,0.73,0.62,9.75,9.06431818008423
,0,0.01,-0.08,-0.31,0.95,-0.23,-3.38,1.15,-5.85,3.69,12.14,0,0,0,1.37,0.55,9.69,9.08147096633911
,0,-0,-0.09,-0.3,0.95,-0.23,-2.9,1.14,-7.12,3.02,10.23,0,0,0,1.64,0.51,9.65,9.09807205200195
,0,-0.01,-0.11,-0.3,0.95,-0.17,-2.54,1.08,-9.04,1.95,9.32,0,0,0,2.09,0.45,9.57,9.11446142196655
,0,-0.01,-0.12,-0.29,0.95,0.02,-1.66,0.84,-9.95,1.77,10.16,0,0,0,2.36,0.43,9.5,9.13176584243774
,0,-0.01,-0.13,-0.28,0.95,0.14,-0.98,0.56,-14.48,0.14,13.06,0,0,0,2.45,0.43,9.48,9.14862751960754
,0,-0.01,-0.14,-0.28,0.95,0.58,-1.14,0.25,-15.62,0.5,8.46,0,0,0,2.65,0.5,9.42,9.16463112831116
,0,-0.01,-0.15,-0.28,0.95,0.66,-1.11,0.18,-14.52,1.79,0.84,0,0,0,2.8,0.6,9.37,9.18201041221619
,0,-0.01,-0.15,-0.28,0.95,0.18,0.28,0.17,-14.88,2.47,1.68,0,0,0,2.78,0.61,9.38,9.19925880432129
,0,-0.01,-0.13,-0.28,0.95,-0.76,1.57,0.45,7.86,-6.88,13.46,0,0,0,2.55,0.5,9.45,9.21472954750061
,0,-0.02,-0.11,-0.27,0.96,-1.76,1.56,0.94,5.66,-0.09,18.43,0,0,0,2.26,0.2,9.53,9.23194479942322
,0,-0.02,-0.11,-0.27,0.96,-0.57,1.71,0.14,3.21,-6.43,-3.28,0,0,0,2.1,0.14,9.57,9.24922156333923
,0,-0.01,-0.07,-0.27,0.96,0.14,3.83,-0.09,-3.14,-3.98,22.9,0,0,0,1.45,0.14,9.69,9.26498365402222
,0,-0,-0.05,-0.28,0.96,0.48,3.33,-0.51,-5.03,0.99,22.85,0,0,0,0.93,0.23,9.75,9.28248047828674
,0,0,-0.04,-0.28,0.96,0.07,1.09,-1.2,3.85,0.46,15.67,0,0,0,0.83,0.25,9.76,9.2993540763855
,0,0,-0.04,-0.29,0.96,-0.26,0.6,0.09,-0.07,-0.6,9.65,0,0,0,0.72,0.22,9.77,9.31472682952881
,0,0,-0.03,-0.28,0.96,-0.07,0.23,0.13,3.01,1.78,9.92,0,0,0,0.63,0.21,9.78,9.33229041099548
,0,0,-0.03,-0.28,0.96,0.04,0.21,0.06,1.22,1.72,10.01,0,0,0,0.61,0.21,9.78,9.34944868087769
,0,0,-0.03,-0.28,0.96,-0.02,0.16,0.02,0.03,0.78,10.04,0,0,0,0.58,0.2,9.78,9.3649263381958
,0,0,-0.03,-0.28,0.96,-0.08,-0.01,-0.01,1.04,0.33,9.51,0,0,0,0.58,0.2,9.78,9.38216686248779
,0,0,-0.03,-0.28,0.96,-0.07,0.03,-0.05,0.55,0.92,9.88,0,0,0,0.58,0.18,9.78,9.39873194694519
,0,-0,-0.03,-0.28,0.96,-0.1,-0.02,-0.07,1.35,0.57,9.9,0,0,0,0.59,0.16,9.78,9.41477274894714
,0,-0,-0.03,-0.29,0.96,-0.11,-0.09,-0.14,1.14,0.29,10.07,0,0,0,0.6,0.15,9.78,9.43268489837646
,0,-0,-0.03,-0.29,0.96,-0.09,-0.11,-0.14,1.57,0.27,9.77,0,0,0,0.62,0.13,9.78,9.44915342330933
,0,-0,-0.03,-0.29,0.96,-0.06,-0.09,-0.11,0.99,0.52,9.95,0,0,0,0.62,0.13,9.78,9.4646532535553
,0,-0,-0.03,-0.29,0.96,-0.03,0.06,-0.04,0.34,0.64,9.74,0,0,0,0.62,0.12,9.78,9.48211193084717
,0,-0,-0.03,-0.29,0.96,-0.03,0.06,-0.02,0.15,1.18,9.83,0,0,0,0.61,0.12,9.78,9.49929666519165
,0,-0,-0.03,-0.29,0.96,-0.01,0.05,-0.02,0.59,0.66,9.51,0,0,0,0.6,0.12,9.78,9.51490235328674
,0,-0,-0.03,-0.29,0.96,-0.02,0.09,-0.02,0.27,0.46,10.48,0,0,0,0.59,0.11,9.78,9.53251361846924
,0,-0,-0.03,-0.29,0.96,-0.01,0.04,-0.02,0.97,0.35,9.84,0,0,0,0.58,0.11,9.78,9.5495023727417
,0,-0,-0.03,-0.29,0.96,-0.01,0.05,-0.01,0.79,0.52,9.78,0,0,0,0.57,0.11,9.78,9.56521248817444
,0,-0,-0.03,-0.29,0.96,0,0.06,-0.02,1,0.61,9.71,0,0,0,0.57,0.11,9.78,9.58228158950806
,0,-0,-0.03,-0.29,0.96,0.01,0.04,-0.01,1.6,0.55,9.74,0,0,0,0.56,0.11,9.78,9.599524974823
,0,-0,-0.03,-0.29,0.96,0.02,0.05,-0.01,1.07,0.64,9.68,0,0,0,0.55,0.12,9.79,9.61472535133362
,0,-0,-0.03,-0.29,0.96,0.02,0.04,-0,1.35,0.44,9.75,0,0,0,0.55,0.12,9.79,9.63281345367432
,0,-0,-0.03,-0.29,0.96,0.03,0.04,0,1.08,0.61,9.61,0,0,0,0.55,0.13,9.78,9.64992809295654
,0,-0,-0.03,-0.29,0.96,0.04,0.04,0.01,0.8,0.48,9.89,0,0,0,0.54,0.14,9.79,9.66496896743774
,0,-0,-0.03,-0.29,0.96,0.01,0.07,0,0.41,0.75,9.64,0,0,0,0.54,0.14,9.79,9.68245959281921
,0,-0,-0.03,-0.29,0.96,0.01,0.06,-0.01,0.23,0.74,9.81,0,0,0,0.53,0.14,9.79,9.69990205764771
,0,-0,-0.03,-0.29,0.96,0.01,0.06,-0,0.03,0.75,9.86,0,0,0,0.51,0.14,9.79,9.71596908569336
,0,-0,-0.03,-0.29,0.96,0,0.07,-0.01,0.23,0.76,10.06,0,0,0,0.51,0.14,9.79,9.73365378379822
,0,-0,-0.03,-0.29,0.96,0.03,0.02,0.02,0.83,0.8,9.72,0,0,0,0.5,0.14,9.79,9.75104379653931
,0,-0,-0.03,-0.29,0.96,0,0.04,0,1.11,0.83,9.62,0,0,0,0.49,0.14,9.79,9.76580190658569
,0,0,-0.03,-0.29,0.96,0,0.05,0.02,1.67,0.63,9.85,0,0,0,0.49,0.15,9.79,9.78331542015076
,0,0,-0.03,-0.29,0.96,0.02,0.04,0.01,1.31,0.65,9.65,0,0,0,0.48,0.15,9.79,9.80042552947998
,0,0,-0.03,-0.29,0.96,-0.01,0.09,-0,0.79,0.66,9.93,0,0,0,0.47,0.15,9.79,9.81619930267334
,0,0,-0.02,-0.29,0.96,0.02,0.07,0.03,0.74,0.51,9.8,0,0,0,0.46,0.15,9.79,9.83405017852783
,0,0,-0.02,-0.29,0.96,0.03,0.07,0.05,0.34,0.62,9.93,0,0,0,0.45,0.16,9.79,9.85165548324585
,0,0,-0.02,-0.29,0.96,0.04,0.09,0.08,0.14,0.87,10.05,0,0,0,0.43,0.16,9.79,9.86657428741455
,0,0,-0.02,-0.29,0.96,0.07,0.08,0.12,0.21,0.69,9.83,0,0,0,0.42,0.17,9.79,9.88388848304749
,0,0,-0.02,-0.29,0.96,0.16,0.17,0.06,0.7,0.47,9.92,0,0,0,0.4,0.19,9.79,9.90139198303223
,0,0.01,-0.02,-0.29,0.96,0.08,0.27,0.04,1.11,0.92,10.05,0,0,0,0.35,0.21,9.79,9.91631555557251
,0,0.01,-0.02,-0.28,0.96,-0.02,0.38,0.08,0.56,-0.05,11.29,0,0,0,0.32,0.2,9.79,9.93417954444885
,0,0.01,-0.02,-0.28,0.96,-0.05,0.3,0.04,0.67,2.2,8.16,0,0,0,0.25,0.18,9.8,9.95168590545654
,0,0.01,-0.01,-0.28,0.96,-0.04,0.51,0.12,0.66,1.22,9.43,0,0,0,0.16,0.17,9.8,9.96696305274963
,0,0.01,-0,-0.28,0.96,-0.02,0.51,0.02,1.32,1.22,9.59,0,0,0,0.11,0.16,9.8,9.98355579376221
,0,0.01,-0,-0.28,0.96,-0.01,0.78,0.14,0.81,0.76,10.3,0,0,0,-0.02,0.15,9.8,10.0009782314301
,0,0.01,0.01,-0.28,0.96,0.09,0.86,0.01,0.57,0.66,9.39,0,0,0,-0.17,0.17,9.8,10.0166652202606
,0,0.01,0.02,-0.28,0.96,0.05,1.01,-0,0.62,0.75,9.69,0,0,0,-0.27,0.17,9.8,10.0343792438507
,0,0.02,0.02,-0.28,0.96,0.09,1.37,0.06,0.31,0.14,9.6,0,0,0,-0.51,0.19,9.79,10.0522873401642
,0,0.02,0.04,-0.28,0.96,0.08,1.69,0.06,0.24,0.26,10.03,0,0,0,-0.82,0.2,9.76,10.0666265487671
,0,0.03,0.06,-0.28,0.96,0.04,1.83,0.01,0.25,-0.24,10.17,0,0,0,-0.99,0.21,9.75,10.0841655731201
,0,0.03,0.06,-0.28,0.96,-0.01,2.05,0.15,0.67,0.48,11.43,0,0,0,-1.37,0.21,9.7,10.1020803451538
,0,0.04,0.08,-0.27,0.96,-0.08,2.31,0.85,8.1,-1.55,11.39,0,0,0,-1.78,0.22,9.63,10.1169083118439
,0,0.05,0.12,-0.27,0.95,0.25,3.33,0.29,1.02,-0.41,12.27,0,0,0,-2.09,0.25,9.57,10.1346633434296
,0,0.07,0.14,-0.27,0.95,1.77,4.94,-0.75,1.85,0.09,12,0,0,0,-2.95,0.47,9.33,10.1520626544952
,0,0.1,0.19,-0.28,0.94,2.41,5.96,-0.93,2.44,4.83,11.58,0,0,0,-3.97,0.83,8.92,10.1676182746887
,0,0.14,0.24,-0.28,0.92,2.62,6.72,-0.48,3.13,2.86,10.76,0,0,0,-5.15,1.22,8.25,10.1850717067719
,0,0.16,0.27,-0.28,0.91,2.51,7,-0.69,0.87,-6.48,22,0,0,0,-5.7,1.38,7.85,10.2025892734528
,0,0.18,0.31,-0.3,0.88,0.34,3.08,-3.51,-10.56,1.85,24.73,0,0,0,-6.42,1.25,7.29,10.2185156345367
,0,0.17,0.31,-0.32,0.88,-0.14,0.65,-2.97,5.22,5.82,14.62,0,0,0,-6.48,0.95,7.29,10.2351639270782
,0,0.17,0.31,-0.33,0.87,-0.39,-0.65,-1.58,4.53,5.75,12.35,0,0,0,-6.45,0.82,7.33,10.2527210712433
,0,0.15,0.31,-0.34,0.88,-0.59,-1.47,-0.94,5.51,5.56,8.07,0,0,0,-6.29,0.6,7.49,10.2680342197418
,0,0.14,0.29,-0.34,0.88,-0.56,-1.59,-0.52,4.83,5.1,8.12,0,0,0,-6.05,0.48,7.69,10.2847075462341
,0,0.14,0.29,-0.34,0.88,-0.4,-2,0.19,3.41,2.25,7.84,0,0,0,-5.9,0.46,7.81,10.303120136261
,0,0.13,0.27,-0.34,0.89,-0.19,-2.37,0.55,1.92,0.79,9.93,0,0,0,-5.54,0.48,8.07,10.3175559043884
,0,0.12,0.24,-0.34,0.9,-0.13,-2.63,0.58,1.23,0.31,10.58,0,0,0,-5.33,0.5,8.21,10.3354053497314
,0,0.12,0.23,-0.34,0.91,-0.1,-3.25,0.49,-0.31,-0.2,10.7,0,0,0,-4.82,0.54,8.51,10.3526365756989
,0,0.1,0.2,-0.34,0.91,-0.16,-3.68,0.28,-1.26,-0.16,9.67,0,0,0,-4.22,0.54,8.83,10.3683929443359
,0,0.09,0.16,-0.34,0.92,-0.16,-3.8,0.17,-1.65,0.35,9.68,0,0,0,-3.56,0.52,9.12,10.3853170871735
,0,0.08,0.15,-0.34,0.92,-0.14,-3.79,0.01,-2.17,0.95,10.91,0,0,0,-3.22,0.51,9.24,10.4027559757233
,0,0.07,0.11,-0.35,0.93,-0.1,-3.76,-0.01,-2.31,2.21,11.84,0,0,0,-2.54,0.49,9.45,10.4184727668762
,0,0.06,0.08,-0.35,0.93,-0.12,-3.73,0.06,-2.58,2.34,12.03,0,0,0,-1.85,0.47,9.61,10.4358787536621
,0,0.05,0.06,-0.35,0.93,-0.11,-3.67,0.25,-2.64,2.18,12.45,0,0,0,-1.51,0.47,9.67,10.4529676437378
,0,0.04,0.03,-0.35,0.94,-0.16,-3.53,0.36,-3.67,2.5,13.31,0,0,0,-0.83,0.45,9.76,10.46848487854
,0,0.02,0,-0.34,0.94,-0.25,-3.44,0.38,-3.97,2.55,13.8,0,0,0,-0.18,0.4,9.79,10.4859583377838
,0,0.02,-0.01,-0.34,0.94,-0.33,-3.38,0.38,-4.98,2.93,14.13,0,0,0,0.13,0.37,9.79,10.5033087730408
,0,0,-0.04,-0.34,0.94,-0.23,-3.45,0.39,-5.21,3.42,12.64,0,0,0,0.79,0.32,9.76,10.518247127533
,0,-0.01,-0.07,-0.33,0.94,-0.18,-3.36,0.42,-5.47,3.37,12.03,0,0,0,1.1,0.3,9.73,10.5354573726654
,0,-0.02,-0.09,-0.33,0.94,0.01,-3.02,0.46,-6.62,2.54,10.43,0,0,0,1.69,0.28,9.65,10.5528485774994
,0,-0.02,-0.11,-0.33,0.94,0.27,-2.49,0.42,-8.51,3.36,7.66,0,0,0,2.18,0.3,9.55,10.5683279037476
,0,-0.03,-0.13,-0.32,0.94,0.34,-2.11,0.4,-9.68,2.06,7.7,0,0,0,2.53,0.33,9.46,10.586056470871
,0,-0.03,-0.13,-0.32,0.94,0.15,-1.21,0.45,-11.5,1.17,7.91,0,0,0,2.64,0.33,9.43,10.6036968231201
,0,-0.03,-0.14,-0.32,0.94,0.15,-0.63,0.4,-13.34,1.25,7.02,0,0,0,2.78,0.34,9.39,10.6187765598297
,0,-0.03,-0.14,-0.31,0.94,0.12,-0.42,0.41,-13.16,1.21,5.94,0,0,0,2.82,0.34,9.38,10.6363613605499
,0,-0.03,-0.14,-0.31,0.94,-0.2,0.4,0.49,-15.15,8.78,-1.18,0,0,0,2.79,0.29,9.39,10.6537778377533
,0,-0.04,-0.12,-0.3,0.94,-1.94,2.4,1.38,-0.53,-12.37,19.45,0,0,0,2.48,0.02,9.48,10.669281244278
,0,-0.04,-0.1,-0.3,0.95,-1.69,2.43,1.03,4.91,-7.6,20.95,0,0,0,2.25,-0.15,9.54,10.6860620975494
,0,-0.04,-0.09,-0.3,0.95,-0.28,2.18,0.08,1.17,-5.23,6.37,0,0,0,1.9,-0.23,9.61,10.7034637928009
,0,-0.03,-0.06,-0.3,0.95,0.19,3.56,-0.22,-1.74,2.3,21.32,0,0,0,1.24,-0.22,9.72,10.7189464569092
,0,-0.02,-0.04,-0.3,0.95,0.38,2.83,-0.32,-2.66,0.77,21.86,0,0,0,0.98,-0.18,9.75,10.7360844612122
,0,-0.02,-0.03,-0.3,0.95,0.01,0.89,-0.1,3.68,-2.67,17.04,0,0,0,0.71,-0.16,9.77,10.7542026042938
,0,-0.02,-0.03,-0.3,0.95,0.18,0.67,0.07,-1.56,2.25,14.5,0,0,0,0.59,-0.13,9.78,10.768609046936
,0,-0.01,-0.02,-0.3,0.95,0.17,0.9,0.03,-0.33,0.28,11.29,0,0,0,0.51,-0.12,9.79,10.7868168354034
,0,-0.01,-0.02,-0.3,0.95,-0,0.13,-0.01,0.44,0.62,9.94,0,0,0,0.46,-0.11,9.79,10.8034696578979
,0,-0.01,-0.02,-0.3,0.95,-0.03,-0.05,-0.03,0.53,0.61,10.12,0,0,0,0.46,-0.12,9.79,10.8189382553101
,0,-0.01,-0.02,-0.3,0.95,0.03,-0.05,-0.07,1.33,0.46,9.62,0,0,0,0.46,-0.11,9.79,10.8362598419189
,0,-0.01,-0.02,-0.3,0.95,0.04,0.05,-0.08,0.03,0.16,10.15,0,0,0,0.46,-0.1,9.79,10.8533220291138
,0,-0.01,-0.02,-0.31,0.95,0.02,0.02,-0.14,0.07,0.38,10.48,0,0,0,0.46,-0.1,9.79,10.8686013221741
,0,-0.01,-0.02,-0.31,0.95,-0,-0.08,-0.15,0.26,0.64,10.04,0,0,0,0.46,-0.1,9.79,10.8862521648407
,0,-0.01,-0.02,-0.31,0.95,-0.03,-0.16,-0.18,0.33,0.34,10.06,0,0,0,0.5,-0.1,9.79,10.9032592773438
,0,-0.01,-0.02,-0.31,0.95,-0.01,-0.04,-0.07,0.87,0.77,9.86,0,0,0,0.51,-0.1,9.79,10.9184963703156
,0,-0.01,-0.02,-0.31,0.95,0.05,-0.11,-0.03,1.65,0.64,9.76,0,0,0,0.52,-0.1,9.79,10.9360058307648
,0,-0.01,-0.02,-0.31,0.95,0.04,0.05,-0.01,1.07,0.84,10.09,0,0,0,0.52,-0.08,9.79,10.953248500824
,0,-0.01,-0.02,-0.31,0.95,0.03,0.04,-0.01,1.43,0.29,9.91,0,0,0,0.52,-0.08,9.79,10.9686801433563
,0,-0.01,-0.02,-0.31,0.95,0.02,-0.01,-0.02,1.74,0.24,9.85,0,0,0,0.52,-0.08,9.79,10.9862680435181
,0,-0.01,-0.02,-0.31,0.95,0.03,0,-0.04,1.16,0.56,9.51,0,0,0,0.52,-0.07,9.79,11.0035014152527
,0,-0.01,-0.02,-0.31,0.95,0.01,0.01,-0.03,0.84,0.73,9.7,0,0,0,0.52,-0.07,9.79,11.0187575817108
,0,-0.01,-0.02,-0.31,0.95,0,0.05,-0.03,0.67,0.56,9.68,0,0,0,0.51,-0.07,9.79,11.0362815856934
,0,-0.01,-0.02,-0.31,0.95,0,0.06,-0.03,-0.12,0.68,9.77,0,0,0,0.5,-0.07,9.79,11.0533742904663
,0,-0.01,-0.02,-0.31,0.95,0,0.06,-0.04,0.58,0.53,9.67,0,0,0,0.49,-0.07,9.79,11.0689244270325
,0,-0.01,-0.02,-0.31,0.95,0.01,0.01,-0.02,0.65,0.41,9.74,0,0,0,0.49,-0.07,9.79,11.0875759124756
,0,-0.01,-0.02,-0.31,0.95,0.01,-0.01,-0.03,0.65,0.5,9.55,0,0,0,0.49,-0.07,9.79,11.1048469543457
,0,-0.01,-0.02,-0.31,0.95,0.01,-0.01,-0.03,1.26,0.54,9.74,0,0,0,0.49,-0.07,9.79,11.120130777359
,0,-0.01,-0.02,-0.31,0.95,-0.01,0.01,-0.02,1.44,0.43,9.67,0,0,0,0.49,-0.07,9.79,11.1390008926392
,0,-0.01,-0.02,-0.31,0.95,-0.01,0.03,-0.03,1.32,0.53,9.7,0,0,0,0.49,-0.07,9.79,11.1557648181915
,0,-0.01,-0.02,-0.31,0.95,0.01,0.02,-0.02,1.17,0.64,9.73,0,0,0,0.49,-0.07,9.79,11.1710112094879
,0,-0.01,-0.02,-0.31,0.95,0.01,0.02,-0.02,1.29,0.5,9.74,0,0,0,0.5,-0.05,9.79,11.1877479553223
,0,-0.01,-0.02,-0.31,0.95,-0.02,0.03,-0.02,0.61,0.58,9.59,0,0,0,0.49,-0.06,9.79,11.2044186592102
,0,-0.01,-0.02,-0.31,0.95,0,0.03,-0.02,0.31,0.6,9.69,0,0,0,0.49,-0.06,9.79,11.220466375351
,0,-0.01,-0.02,-0.31,0.95,0.03,0.02,0,0.56,0.44,9.71,0,0,0,0.48,-0.05,9.79,11.2387316226959
,0,-0.01,-0.02,-0.31,0.95,0.05,0.01,0,0.66,0.49,9.55,0,0,0,0.48,-0.04,9.79,11.2550489902496
,0,-0.01,-0.02,-0.31,0.95,0.02,0.04,-0.03,0.53,0.61,9.6,0,0,0,0.48,-0.01,9.79,11.2701182365417
,0,-0.01,-0.02,-0.31,0.95,0.05,0.03,0.01,0.99,0.67,9.84,0,0,0,0.48,0,9.79,11.2883696556091
,0,-0.01,-0.02,-0.31,0.95,0.04,0.03,-0.02,0.59,0.61,9.66,0,0,0,0.49,0.03,9.79,11.3047683238983
,0,-0,-0.02,-0.31,0.95,0.03,0.05,-0.04,0.62,0.33,9.75,0,0,0,0.48,0.06,9.79,11.3191356658936
,0,-0,-0.02,-0.31,0.95,0.12,0.08,0.02,1.35,0.07,9.88,0,0,0,0.48,0.07,9.79,11.3385062217712
,0,-0,-0.02,-0.31,0.95,0.03,0.07,-0.01,0.68,0.25,9.7,0,0,0,0.47,0.08,9.79,11.3552980422974
,0,-0,-0.02,-0.31,0.95,0.01,0.14,0,-0.11,0.37,8.46,0,0,0,0.43,0.08,9.79,11.3701591491699
,0,-0,-0.02,-0.31,0.95,0.11,0.3,0.02,1.28,0.2,10.29,0,0,0,0.4,0.09,9.79,11.3888688087463
,0,-0,-0.02,-0.31,0.95,-0.15,0.34,-0.02,1.12,1.17,9.26,0,0,0,0.34,0.08,9.8,11.404940366745
,0,-0,-0.01,-0.31,0.95,-0.17,0.34,0.05,1.15,1.14,11.07,0,0,0,0.26,0.05,9.8,11.4199061393738
,0,-0,-0.01,-0.31,0.95,-0.09,0.52,0.15,1.08,1.21,9.82,0,0,0,0.21,0.04,9.8,11.4386832714081
,0,0,-0.01,-0.31,0.95,0.04,0.68,0.19,1.4,0.53,10.3,0,0,0,0.09,0.04,9.8,11.4549145698547
,0,0,0,-0.31,0.95,0.05,0.79,0.25,1.19,0.65,9.16,0,0,0,-0.06,0.05,9.8,11.4702298641205
,0,0.01,0.01,-0.31,0.95,0,1.03,0.21,1.03,0.56,9.81,0,0,0,-0.16,0.05,9.8,11.4893853664398
,0,0.01,0.02,-0.31,0.95,0.04,1.44,0.1,0.26,0.45,9.98,0,0,0,-0.42,0.06,9.79,11.5053057670593
,0,0.02,0.03,-0.3,0.95,0.12,1.58,0.08,1.12,0.16,9.05,0,0,0,-0.74,0.08,9.77,11.5206134319305
,0,0.02,0.05,-0.3,0.95,0.1,1.93,0.22,0.71,0.73,9.45,0,0,0,-0.92,0.1,9.76,11.539883852005
,0,0.03,0.06,-0.3,0.95,0.03,2.22,0.48,0.51,-1.13,11.44,0,0,0,-1.35,0.1,9.71,11.5557391643524
,0,0.03,0.09,-0.29,0.95,-0.21,2.29,1.05,9.11,-1.67,11.03,0,0,0,-1.8,0.11,9.63,11.5703568458557
,0,0.05,0.12,-0.29,0.95,0.56,3.62,0.06,-1.13,-1.93,11.37,0,0,0,-2.13,0.17,9.56,11.5902526378632
,0,0.07,0.14,-0.29,0.94,1.82,5.16,-0.57,1.42,-0.62,11.31,0,0,0,-3.05,0.42,9.3,11.6060652732849
,0,0.11,0.19,-0.3,0.93,2.54,5.62,-0.56,3.9,3.37,10.92,0,0,0,-4.09,0.82,8.87,11.6212956905365
,0,0.15,0.25,-0.29,0.91,2.4,7.04,-0.42,-0.46,1.71,9.78,0,0,0,-4.69,1.01,8.55,11.6408674716949
,0,0.17,0.28,-0.29,0.9,2.19,7.48,-0.37,3.16,-5.62,13.85,0,0,0,-5.9,1.34,7.7,11.6562125682831
,0,0.19,0.33,-0.3,0.87,1.38,4.55,-2.51,-10.36,3.52,22.1,0,0,0,-6.79,1.37,6.93,11.6710565090179
,0,0.19,0.34,-0.32,0.86,-0.22,1.65,-2.52,-6.22,6.27,18.81,0,0,0,-6.93,1.19,6.82,11.6911222934723
,0,0.18,0.34,-0.32,0.86,-0.39,-0.52,-0.88,4.03,3.27,11.63,0,0,0,-6.95,0.97,6.84,11.706273317337
,0,0.17,0.34,-0.33,0.87,-0.73,-1.28,-0.76,4.43,2.85,8.57,0,0,0,-6.82,0.77,6.99,11.7215826511383
,0,0.16,0.33,-0.33,0.87,-0.68,-1.6,-0.58,3.6,3.21,7.53,0,0,0,-6.72,0.69,7.1,11.7413685321808
,0,0.16,0.32,-0.33,0.87,-0.53,-1.92,-0.1,3.01,2.93,8.1,0,0,0,-6.47,0.58,7.34,11.7567284107208
,0,0.14,0.3,-0.33,0.88,-0.49,-2.09,0.13,1.16,1.94,10.15,0,0,0,-6.14,0.54,7.62,11.7719769477844
,0,0.13,0.28,-0.33,0.89,-0.45,-2.65,0.44,0.5,1.67,10.56,0,0,0,-5.94,0.53,7.77,11.7919008731842
,0,0.13,0.26,-0.33,0.9,-0.45,-3.26,0.59,-0.17,0.96,9.94,0,0,0,-5.46,0.52,8.12,11.806389093399
,0,0.11,0.23,-0.33,0.91,-0.47,-3.48,0.59,-1.52,0.58,9.38,0,0,0,-4.88,0.5,8.48,11.8218548297882
,0,0.1,0.2,-0.33,0.92,-0.55,-3.77,0.51,-1.82,0.42,9.39,0,0,0,-4.56,0.48,8.66,11.8418943881989
,0,0.09,0.19,-0.33,0.92,-0.55,-3.82,0.34,-2.34,0.88,10.11,0,0,0,-3.91,0.41,8.98,11.8576717376709
,0,0.07,0.15,-0.33,0.93,-0.53,-3.79,0.28,-2.59,0.95,10.85,0,0,0,-3.25,0.34,9.24,11.8721387386322
,0,0.06,0.12,-0.32,0.94,-0.61,-3.68,0.21,-2.57,1.01,11.07,0,0,0,-2.91,0.29,9.35,11.8921387195587
,0,0.05,0.11,-0.32,0.94,-0.51,-3.63,0.24,-2.05,1.69,11.89,0,0,0,-2.25,0.2,9.54,11.9075140953064
,0,0.03,0.07,-0.32,0.94,-0.41,-3.51,0.37,-2.38,2.27,13.16,0,0,0,-1.59,0.13,9.67,11.9232571125031
,0,0.02,0.04,-0.32,0.95,-0.41,-3.46,0.43,-2.85,2.74,14.01,0,0,0,-0.94,0.06,9.76,11.943149805069
,0,0.01,0.03,-0.32,0.95,-0.47,-3.42,0.55,-3.98,3.44,14.08,0,0,0,-0.61,0.02,9.78,11.9581029415131
,0,-0,-0,-0.31,0.95,-0.55,-3.35,0.66,-5.62,3.41,12.21,0,0,0,0.02,-0.06,9.8,11.9745140075684
,0,-0.02,-0.03,-0.3,0.95,-0.55,-3.2,0.7,-6.63,3.22,11.94,0,0,0,0.6,-0.16,9.78,11.9943690299988
,0,-0.03,-0.05,-0.3,0.95,-0.3,-2.79,0.69,-9.14,2.42,12.58,0,0,0,0.87,-0.2,9.76,12.0116767883301
,0,-0.03,-0.06,-0.29,0.95,0.07,-2.35,0.56,-12.69,2.54,14.18,0,0,0,1.31,-0.2,9.71,12.0287349224091
,0,-0.03,-0.08,-0.29,0.95,0.21,-2.23,0.54,-15.78,0.66,6.55,0,0,0,1.73,-0.17,9.65,12.0457632541656
,0,-0.04,-0.1,-0.28,0.95,0.25,-2.11,0.5,-16.74,0.08,3.92,0,0,0,2.02,-0.13,9.59,12.0635430812836
,0,-0.04,-0.1,-0.28,0.95,0.3,-1.04,0.25,-18.26,0.31,2.73,0,0,0,2.16,-0.09,9.56,12.0808441638947
,0,-0.04,-0.1,-0.28,0.95,0.06,0.18,0.07,-18.55,8.01,-6.05,0,0,0,2.14,-0.08,9.56,12.0989570617676
,0,-0.04,-0.09,-0.28,0.95,-0.91,1.54,0.22,5.42,-12.87,27.66,0,0,0,1.9,-0.22,9.61,12.1157097816467
,0,-0.04,-0.08,-0.28,0.96,-0.91,1.54,0.22,3.87,-1.9,-1.42,0,0,0,1.65,-0.27,9.66,12.1316161155701
,0,-0.03,-0.06,-0.28,0.96,0.24,3.27,-0.12,1.78,-0.57,10.8,0,0,0,1.34,-0.25,9.71,12.1517424583435
,0,-0.02,-0.04,-0.29,0.96,0.37,1.79,-0.33,-4.22,0.87,21.89,0,0,0,0.9,-0.16,9.76,12.1669542789459
,0,-0.02,-0.03,-0.29,0.96,0.37,1.79,-0.33,4.11,-2.26,10.01,0,0,0,0.69,-0.11,9.78,12.1828444004059
,0,-0.01,-0.03,-0.29,0.96,0.22,0.6,-0.08,-0.28,0.55,16.78,0,0,0,0.63,-0.08,9.78,12.2031199932098
,0,-0.01,-0.03,-0.29,0.96,0.2,0.64,0.07,0.74,-0.01,11,0,0,0,0.55,-0.06,9.79,12.2180531024933
,0,-0.01,-0.02,-0.29,0.96,0.21,0.47,-0.02,-0.06,1.15,10.36,0,0,0,0.44,-0.02,9.79,12.2336339950562
,0,-0.01,-0.02,-0.29,0.96,0.05,0.19,0.03,-1.07,0.56,11.2,0,0,0,0.42,-0.01,9.79,12.2538812160492
,0,-0.01,-0.02,-0.29,0.96,0.04,0,-0.01,1.31,0.54,9.6,0,0,0,0.43,-0.01,9.79,12.269278049469
,0,-0.01,-0.02,-0.29,0.96,-0.02,0.02,-0.04,0.97,0.31,10.08,0,0,0,0.42,-0.01,9.79,12.2852432727814
,0,-0.01,-0.02,-0.29,0.96,-0.03,-0.02,-0.06,0.85,0.62,9.76,0,0,0,0.43,-0.02,9.79,12.3044054508209
,0,-0.01,-0.02,-0.29,0.96,-0.03,-0.15,-0.09,1.63,0.52,9.47,0,0,0,0.45,-0.02,9.79,12.3196432590485
,0,-0.01,-0.02,-0.29,0.96,-0.02,-0.02,-0.06,1.24,0.32,9.82,0,0,0,0.45,-0.02,9.79,12.3358278274536
,0,-0.01,-0.02,-0.29,0.96,-0.01,0.01,-0.05,0.97,0.5,9.85,0,0,0,0.45,-0.02,9.79,12.3544228076935
,0,-0.01,-0.02,-0.29,0.96,-0.02,0.01,-0.03,0.49,0.68,9.55,0,0,0,0.45,-0.02,9.79,12.3697521686554
,0,-0.01,-0.02,-0.29,0.96,-0,0.07,-0.03,-0.17,0.91,9.95,0,0,0,0.44,-0.03,9.79,12.3870646953583
,0,-0.01,-0.02,-0.29,0.96,0,-0.01,-0.03,0.31,0.63,9.7,0,0,0,0.44,-0.03,9.79,12.4048607349396
,0,-0.01,-0.02,-0.29,0.96,-0.07,0.02,-0.06,0.32,0.16,10.07,0,0,0,0.44,-0.03,9.79,12.4199912548065
,0,-0.01,-0.02,-0.29,0.96,-0.08,0.01,-0.06,0.6,0.21,10.15,0,0,0,0.44,-0.05,9.79,12.4361069202423
,0,-0.01,-0.02,-0.29,0.96,-0.05,-0.08,-0.13,0.65,-0.05,9.94,0,0,0,0.46,-0.06,9.79,12.4551746845245
,0,-0.01,-0.02,-0.29,0.96,-0.06,-0.01,-0.08,2.02,0.24,9.64,0,0,0,0.46,-0.06,9.79,12.4698626995087
,0,-0.01,-0.02,-0.29,0.96,-0.04,-0.02,-0.07,1.57,0.36,9.7,0,0,0,0.46,-0.07,9.79,12.4864945411682
,0,-0.01,-0.02,-0.29,0.96,-0.02,0.01,-0.04,1.7,0.29,9.58,0,0,0,0.45,-0.07,9.79,12.5049469470978
,0,-0.01,-0.02,-0.29,0.96,0.02,0.05,-0.01,0.81,0.54,9.55,0,0,0,0.45,-0.07,9.79,12.5200793743134
,0,-0.01,-0.02,-0.29,0.96,-0.01,0.04,-0.03,0.56,0.44,9.51,0,0,0,0.44,-0.07,9.79,12.5370116233826
,0,-0.01,-0.02,-0.29,0.96,-0.02,0,-0.05,0.54,0.28,9.83,0,0,0,0.45,-0.07,9.79,12.5549755096436
,0,-0.01,-0.02,-0.29,0.96,-0.02,0.03,-0.06,0.31,0.29,9.89,0,0,0,0.44,-0.08,9.79,12.570380449295
,0,-0.01,-0.02,-0.3,0.96,0,0.03,-0.08,0.28,0.52,9.91,0,0,0,0.44,-0.08,9.79,12.5862448215485
,0,-0.01,-0.02,-0.3,0.95,-0.02,0.02,-0.04,0.63,0.32,9.89,0,0,0,0.44,-0.07,9.79,12.6052489280701
,0,-0.01,-0.02,-0.3,0.95,0.01,0.01,-0.05,1.64,0.27,9.76,0,0,0,0.44,-0.07,9.79,12.6201260089874
,0,-0.01,-0.02,-0.3,0.95,0,0.04,-0.08,1.08,0.38,9.93,0,0,0,0.43,-0.07,9.79,12.6366856098175
,0,-0.01,-0.02,-0.3,0.95,0.02,0,-0.06,1.4,0.36,9.47,0,0,0,0.42,-0.07,9.79,12.6552307605743
,0,-0.01,-0.02,-0.3,0.95,0.01,0.02,-0.09,0.8,0.17,9.5,0,0,0,0.42,-0.07,9.79,12.6706545352936
,0,-0.01,-0.02,-0.3,0.95,0.02,0.03,-0.09,0.54,0.21,9.75,0,0,0,0.42,-0.06,9.79,12.6863586902618
,0,-0.01,-0.02,-0.3,0.95,0.01,0,-0.1,0.85,0.13,9.82,0,0,0,0.41,-0.05,9.79,12.7053666114807
,0,-0.01,-0.02,-0.3,0.95,0.09,0.04,-0.04,0.68,0.19,9.97,0,0,0,0.41,-0.05,9.79,12.7202701568604
,0,-0.01,-0.02,-0.3,0.95,0.06,0.09,-0.03,1.01,0.58,9.76,0,0,0,0.41,-0.02,9.79,12.7350566387177
,0,-0.01,-0.02,-0.3,0.95,0.04,0.11,-0.03,0.54,0.3,10.14,0,0,0,0.4,-0.01,9.79,12.7552952766418
,0,-0.01,-0.02,-0.3,0.95,0.02,0.08,-0.07,1.05,0.35,9.67,0,0,0,0.39,0,9.79,12.7698483467102
,0,-0.01,-0.02,-0.3,0.95,0.01,0.13,-0.08,0.34,0.44,9.54,0,0,0,0.37,0,9.79,12.7847454547882
,0,-0,-0.02,-0.3,0.95,0.11,0.21,-0.07,0.07,0.61,8.51,0,0,0,0.35,0.01,9.8,12.8050446510315
,0,-0,-0.01,-0.3,0.95,-0.06,0.47,-0.07,-0.59,0.4,11.08,0,0,0,0.29,0.01,9.8,12.8198294639587
,0,-0,-0.01,-0.3,0.95,0.07,0.52,-0.12,1.71,1.58,9.74,0,0,0,0.2,0.01,9.8,12.8354003429413
,0,-0,-0,-0.3,0.95,-0.05,0.59,-0.05,1.51,0.78,8.67,0,0,0,0.14,0.01,9.8,12.8550493717194
,0,-0,-0,-0.3,0.95,-0.14,0.71,-0.1,0.63,1.38,9.64,0,0,0,0.01,0,9.8,12.8695590496063
,0,0,0.01,-0.3,0.95,-0.04,0.82,-0.03,0.76,0.54,10.7,0,0,0,-0.15,0,9.8,12.8849997520447
,0,0.01,0.02,-0.3,0.95,0.11,0.94,0.17,-0.06,0.43,9.34,0,0,0,-0.24,0,9.8,12.9052591323853
,0,0.01,0.02,-0.3,0.95,0.29,1.38,0.3,0.64,0.36,9.81,0,0,0,-0.48,0.05,9.79,12.9199500083923
,0,0.02,0.04,-0.3,0.95,0.18,1.54,0.24,-0.33,0.54,10,0,0,0,-0.78,0.09,9.77,12.9363250732422
,0,0.02,0.05,-0.29,0.95,0.06,1.63,0.32,0.71,0,9.39,0,0,0,-0.93,0.1,9.76,12.9551985263824
,0,0.03,0.06,-0.29,0.95,-0.24,2.21,0.52,0.1,0.37,9.31,0,0,0,-1.33,0.1,9.71,12.9698424339294
,0,0.03,0.08,-0.29,0.95,-0.28,2.1,0.57,2.1,1.65,8.35,0,0,0,-1.71,0.08,9.65,12.9854376316071
,0,0.03,0.11,-0.28,0.95,-0.73,2.34,0.44,3.97,-0.69,11.01,0,0,0,-1.93,0.02,9.61,13.0053570270538
,0,0.04,0.13,-0.28,0.95,-0.11,4.33,-0.18,-0.45,-0.13,13.1,0,0,0,-2.63,-0.03,9.44,13.0199463367462
,0,0.06,0.18,-0.28,0.94,0.18,4.84,-0.37,2.66,-1.81,11.34,0,0,0,-3.56,0.07,9.13,13.0361783504486
,0,0.09,0.23,-0.29,0.92,1.8,6.3,-0.56,2.79,3.26,13.68,0,0,0,-4.11,0.21,8.89,13.0560677051544
,0,0.11,0.26,-0.29,0.91,2.28,7.96,-0.15,0.18,-0.15,9.18,0,0,0,-5.37,0.54,8.18,13.0707335472107
,0,0.15,0.33,-0.29,0.88,2,8.18,-0.43,-1.76,-4.6,27.26,0,0,0,-6.6,0.74,7.2,13.0857515335083
,0,0.17,0.36,-0.31,0.86,2.38,5.82,-2.36,-10.32,0.74,36.92,0,0,0,-7.01,0.75,6.8,13.1055846214294
,0,0.16,0.37,-0.32,0.86,-0.36,-0.08,-1.75,-8.94,8.12,21.23,0,0,0,-7.16,0.41,6.68,13.1206188201904
,0,0.15,0.36,-0.33,0.86,-0.52,-1.53,-0.83,3.95,3.27,8.67,0,0,0,-6.98,0.24,6.88,13.1361417770386
,0,0.14,0.34,-0.33,0.87,-0.63,-1.55,-0.57,3.49,2.35,7.65,0,0,0,-6.87,0.16,6.98,13.1556005477905
,0,0.13,0.34,-0.33,0.87,-0.29,-1.86,-0.19,3.67,2.92,6.92,0,0,0,-6.62,0.06,7.22,13.1703290939331
,0,0.12,0.32,-0.33,0.88,-0.2,-2.01,0.03,2.9,2.19,8.54,0,0,0,-6.32,0.05,7.49,13.1859965324402
,0,0.12,0.3,-0.33,0.89,-0.11,-2.52,0.33,2.12,1.59,9.63,0,0,0,-6.13,0.07,7.64,13.2057387828827
,0,0.11,0.28,-0.33,0.89,-0.01,-3.21,0.45,0.27,0.77,9.77,0,0,0,-5.67,0.11,7.99,13.2204551696777
,0,0.1,0.25,-0.33,0.9,0.01,-3.5,0.46,-0.34,0.3,8.23,0,0,0,-5.1,0.16,8.37,13.2365775108337
,0,0.09,0.22,-0.33,0.91,0.03,-3.74,0.42,-1.1,0.12,7.97,0,0,0,-4.79,0.18,8.55,13.2559568881989
,0,0.08,0.2,-0.33,0.92,-0,-3.76,0.3,-1.92,-0.26,9.64,0,0,0,-4.16,0.21,8.87,13.2706878185272
,0,0.07,0.17,-0.33,0.92,0.01,-3.8,0.22,-2.92,0.4,11.86,0,0,0,-3.49,0.22,9.15,13.2862389087677
,0,0.06,0.13,-0.34,0.93,-0.03,-3.94,0.12,-2.81,0.74,11.81,0,0,0,-3.14,0.22,9.28,13.3061718940735
,0,0.05,0.11,-0.34,0.93,-0.12,-3.94,0.17,-2.63,1.26,12.08,0,0,0,-2.42,0.21,9.49,13.3208882808685
,0,0.04,0.08,-0.33,0.94,-0.14,-3.93,0.24,-2.6,1.66,12.31,0,0,0,-1.69,0.2,9.65,13.3370327949524
,0,0.03,0.04,-0.33,0.94,-0.1,-3.8,0.41,-2.46,2.18,12.44,0,0,0,-1.34,0.2,9.71,13.3564786911011
,0,0.02,0.03,-0.33,0.94,-0.18,-3.61,0.6,-3.38,2.7,13.65,0,0,0,-0.65,0.18,9.78,13.3712642192841
,0,0.01,-0,-0.32,0.95,-0.21,-3.53,0.68,-4.56,3.12,14.35,0,0,0,0.01,0.14,9.8,13.3869938850403
,0,-0.01,-0.03,-0.32,0.95,-0.28,-3.46,0.79,-5.56,2.78,13.29,0,0,0,0.34,0.11,9.79,13.40705037117
,0,-0.01,-0.05,-0.31,0.95,-0.13,-3.22,0.82,-6.74,2.7,12.02,0,0,0,0.97,0.07,9.75,13.421199798584
,0,-0.02,-0.07,-0.3,0.95,-0.03,-3.02,0.82,-8.65,3.81,8.55,0,0,0,1.51,0.05,9.68,13.4365656375885
,0,-0.03,-0.09,-0.3,0.95,-0.11,-2.23,0.85,-9.43,2.13,7.83,0,0,0,1.72,0.02,9.65,13.4562339782715
,0,-0.03,-0.1,-0.29,0.95,-0.08,-1.17,0.75,-11.99,1.6,7.06,0,0,0,1.98,-0.02,9.6,13.470876455307
,0,-0.03,-0.1,-0.29,0.95,0.01,-0.71,0.67,-13.7,1.85,5.59,0,0,0,2.07,-0.03,9.58,13.4871425628662
,0,-0.03,-0.1,-0.28,0.95,0.31,0.23,0.53,-13.64,2.42,6.9,0,0,0,2.05,-0.01,9.58,13.5065186023712
,0,-0.02,-0.1,-0.28,0.96,0.58,0.82,0.52,-14.33,4.9,6.41,0,0,0,1.92,0.05,9.61,13.5208835601807
,0,-0.02,-0.08,-0.27,0.96,0.44,1.16,0.73,-13.62,10.49,-4.11,0,0,0,1.58,-0.02,9.67,13.5369324684143
,0,-0.03,-0.06,-0.26,0.96,-1.85,2.66,1.59,-9.56,-10.17,10.98,0,0,0,1.33,-0.22,9.71,13.5565130710602
,0,-0.03,-0.05,-0.26,0.96,-0.21,1.07,0.18,-2.7,-15.75,3.61,0,0,0,1.09,-0.32,9.73,13.5711841583252
,0,-0.02,-0.03,-0.26,0.96,0.15,1.69,-0.27,0.6,-2.41,11.06,0,0,0,0.7,-0.24,9.77,13.5876951217651
,0,-0.01,-0.02,-0.27,0.96,0.74,2.09,-0.55,-3.37,4.86,30.2,0,0,0,0.51,-0.17,9.79,13.6065611839294
,0,-0.02,-0.02,-0.27,0.96,-0.38,-0.77,-0.48,-0.26,-1.5,4.36,0,0,0,0.51,-0.2,9.79,13.6216821670532
,0,-0.01,-0.02,-0.27,0.96,0.09,0.13,-0.05,-0.57,2.22,11.61,0,0,0,0.42,-0.15,9.79,13.6376821994781
,0,-0.01,-0.02,-0.27,0.96,0.15,0.29,0.04,2.03,0.89,9.79,0,0,0,0.39,-0.14,9.79,13.6566133499146
,0,-0.01,-0.02,-0.27,0.96,-0.02,-0.05,0.02,2.33,0.93,9.04,0,0,0,0.36,-0.14,9.79,13.6716413497925
,0,-0.01,-0.01,-0.27,0.96,0,0.08,-0,0.48,0.56,10.65,0,0,0,0.33,-0.15,9.79,13.6871917247772
,0,-0.01,-0.01,-0.27,0.96,-0.04,0.07,-0.06,0.31,0.31,10.23,0,0,0,0.33,-0.15,9.79,13.7069165706635
,0,-0.01,-0.01,-0.27,0.96,-0.04,0.06,-0.08,0.14,0.37,9.78,0,0,0,0.32,-0.16,9.79,13.7215945720673
,0,-0.01,-0.01,-0.27,0.96,-0.07,0.04,-0.09,0.07,0.28,10.06,0,0,0,0.32,-0.17,9.79,13.7375988960266
,0,-0.01,-0.01,-0.27,0.96,-0.09,-0.12,-0.15,0.28,-0.28,9.94,0,0,0,0.33,-0.18,9.79,13.7569077014923
,0,-0.01,-0.02,-0.27,0.96,-0.07,-0.17,-0.17,0.25,0.34,10.04,0,0,0,0.37,-0.19,9.79,13.771071434021
,0,-0.02,-0.02,-0.28,0.96,-0.06,-0.16,-0.15,0.53,0.66,10.21,0,0,0,0.4,-0.19,9.79,13.7876789569855
,0,-0.02,-0.02,-0.28,0.96,-0.03,-0.15,-0.09,0.44,0.71,9.89,0,0,0,0.41,-0.2,9.79,13.806914806366
,0,-0.02,-0.02,-0.28,0.96,0.03,0.01,0.01,0.47,0.35,9.45,0,0,0,0.42,-0.19,9.79,13.8217995166779
,0,-0.02,-0.02,-0.28,0.96,0.04,0.03,0.02,0.96,1.03,9.89,0,0,0,0.42,-0.18,9.79,13.8377931118011
,0,-0.01,-0.02,-0.28,0.96,0.07,-0.03,0.03,1.34,0.02,9.88,0,0,0,0.43,-0.18,9.79,13.8570563793182
,0,-0.01,-0.02,-0.28,0.96,0.02,0.03,-0.07,0.85,0.36,10.01,0,0,0,0.42,-0.17,9.79,13.871523141861
,0,-0.01,-0.02,-0.28,0.96,0.01,-0.01,-0.05,1.75,0.27,9.48,0,0,0,0.42,-0.17,9.79,13.8877246379852
,0,-0.01,-0.02,-0.28,0.96,0.03,0.05,-0.03,1.79,0.18,9.61,0,0,0,0.42,-0.17,9.79,13.9074096679688
,0,-0.01,-0.02,-0.28,0.96,0.01,0.1,-0.05,0.85,0.42,9.7,0,0,0,0.4,-0.16,9.79,13.9218032360077
,0,-0.01,-0.02,-0.28,0.96,0.01,0.08,-0.05,0.61,0.27,9.73,0,0,0,0.39,-0.16,9.79,13.9376180171967
,0,-0.01,-0.02,-0.28,0.96,0.03,0.06,-0.02,0.82,0.21,9.65,0,0,0,0.38,-0.15,9.79,13.9570095539093
,0,-0.01,-0.02,-0.28,0.96,0.02,0.09,-0.04,-0.07,0.4,9.99,0,0,0,0.37,-0.15,9.79,13.9714803695679
,0,-0.01,-0.02,-0.28,0.96,0.02,0.05,-0.05,0.23,0.42,9.9,0,0,0,0.36,-0.15,9.79,13.9881293773651
,0,-0.01,-0.02,-0.28,0.96,0.07,0.04,-0.02,0.23,0.38,9.82,0,0,0,0.36,-0.14,9.79,14.0074520111084
,0,-0.01,-0.02,-0.28,0.96,0.02,0.07,-0.04,-0.08,0.42,9.94,0,0,0,0.35,-0.13,9.79,14.0218172073364
,0,-0.01,-0.02,-0.28,0.96,0.04,0.05,-0.03,0.78,0.37,9.77,0,0,0,0.34,-0.09,9.8,14.038382768631
,0,-0.01,-0.02,-0.28,0.96,0.14,-0.01,-0.03,1.44,-0.08,9.44,0,0,0,0.34,-0.08,9.8,14.0578272342682
,0,-0.01,-0.02,-0.28,0.96,-0,0.04,-0.03,1.11,0.08,9.7,0,0,0,0.33,-0.08,9.8,14.0721869468689
,0,-0.01,-0.02,-0.28,0.96,0.02,0.03,-0.04,1.31,0.02,9.5,0,0,0,0.32,-0.07,9.8,14.0888409614563
,0,-0.01,-0.01,-0.28,0.96,0.07,0.06,-0.05,1.27,0.52,9.5,0,0,0,0.32,-0.06,9.8,14.1073529720306
,0,-0.01,-0.01,-0.28,0.96,0.06,0.1,-0.05,0.71,0.43,9.68,0,0,0,0.31,-0.05,9.8,14.1222448348999
,0,-0.01,-0.01,-0.28,0.96,0.03,0.08,-0.06,0.59,0.36,9.29,0,0,0,0.3,-0.04,9.8,14.1389672756195
,0,-0.01,-0.01,-0.28,0.96,0.03,0.2,-0.07,0.45,0.74,10.02,0,0,0,0.28,-0.04,9.8,14.15789103508
,0,-0.01,-0.01,-0.28,0.96,0.02,0.25,-0.06,-0.08,0.19,9.95,0,0,0,0.23,-0.04,9.8,14.1722049713135
,0,-0,-0.01,-0.28,0.96,0.08,0.29,-0.05,0.61,0.61,10.06,0,0,0,0.18,-0.03,9.8,14.1888122558594
,0,-0,-0.01,-0.28,0.96,-0.04,0.27,-0,0.33,0.69,9.79,0,0,0,0.16,-0.04,9.8,14.2077348232269
,0,-0,-0,-0.28,0.96,0.22,0.47,-0.06,0.88,-0.34,9.81,0,0,0,0.08,0,9.8,14.2217729091644
,0,0,-0,-0.28,0.96,0.13,0.48,-0.06,0.43,0.56,9.66,0,0,0,0,0.01,9.8,14.2388000488281
,0,0,0,-0.28,0.96,0.13,0.46,0.08,1.18,0.4,11.28,0,0,0,-0.04,0.02,9.8,14.2573018074036
,0,0,0.01,-0.28,0.96,0.1,0.46,0.32,0.22,0.82,8.69,0,0,0,-0.12,0.04,9.8,14.2720260620117
,0,0.01,0.01,-0.28,0.96,0.07,0.55,0.33,0.16,1.29,8.2,0,0,0,-0.24,0.04,9.8,14.2886505126953
,0,0.01,0.02,-0.27,0.96,0.03,0.71,0.26,2.17,0.85,9.44,0,0,0,-0.3,0.05,9.8,14.3073942661285
,0,0.01,0.02,-0.27,0.96,0.02,0.97,0.25,0.23,0.81,10.94,0,0,0,-0.48,0.05,9.79,14.3223006725311
,0,0.01,0.03,-0.27,0.96,0.15,1,0.28,0.12,0.39,10.31,0,0,0,-0.67,0.09,9.78,14.3385832309723
,0,0.02,0.04,-0.27,0.96,0.14,1.22,0.25,0.99,0.38,9.17,0,0,0,-0.78,0.1,9.77,14.3577280044556
,0,0.02,0.05,-0.27,0.96,-0.02,1.73,0.32,0.07,0.98,11.03,0,0,0,-1.07,0.1,9.74,14.372563123703
,0,0.03,0.07,-0.26,0.96,0.11,1.83,0.27,-0.1,-0.19,10.19,0,0,0,-1.42,0.14,9.7,14.3889636993408
,0,0.03,0.09,-0.25,0.96,0.22,1.6,0.67,0.93,-1.13,11.06,0,0,0,-1.57,0.17,9.67,14.4076836109161
,0,0.04,0.1,-0.25,0.96,0.54,2.74,0.12,9.67,-3.41,11.36,0,0,0,-2.03,0.27,9.58,14.4222733974457
,0,0.06,0.14,-0.26,0.95,1.12,4.35,-0.21,-1.13,1.32,11.87,0,0,0,-2.89,0.49,9.35,14.4391300678253
,0,0.08,0.16,-0.26,0.95,2.53,5.55,-0.55,-1.13,1.04,12.83,0,0,0,-3.39,0.7,9.17,14.4577696323395
,0,0.12,0.21,-0.26,0.93,2.94,6.71,-1.02,4.55,2.6,10.31,0,0,0,-4.5,1.16,8.63,14.4730432033539
,0,0.17,0.28,-0.26,0.91,2.7,7.73,-0.76,2.53,0.66,11.6,0,0,0,-5.8,1.57,7.74,14.4891765117645
,0,0.21,0.34,-0.27,0.88,3.13,8.28,-0.4,2.16,-0.02,11.9,0,0,0,-6.41,1.77,7.2,14.5079815387726
,0,0.22,0.36,-0.27,0.87,1.38,4.2,-2.42,-8.89,4.21,27.94,0,0,0,-7.21,1.77,6.39,14.5227334499359
,0,0.21,0.37,-0.29,0.86,-0.26,1.57,-2.46,-9.76,5.59,22.08,0,0,0,-7.38,1.48,6.28,14.5394449234009
,0,0.2,0.36,-0.29,0.86,-0.83,-1.27,-0.74,6.69,0.48,12.58,0,0,0,-7.31,1.38,6.38,14.5581052303314
,0,0.19,0.36,-0.3,0.87,-0.97,-1.73,-0.87,4.3,2.61,8.86,0,0,0,-7.13,1.14,6.63,14.57266497612
,0,0.17,0.34,-0.3,0.87,-0.97,-2.02,-0.72,4.4,3.17,8.18,0,0,0,-6.87,0.92,6.93,14.589649438858
,0,0.16,0.33,-0.3,0.88,-0.98,-2.41,-0.35,2.77,2.7,8.35,0,0,0,-6.71,0.83,7.1,14.6085624694824
,0,0.15,0.31,-0.31,0.89,-0.74,-2.93,-0.06,1.51,2.39,8.17,0,0,0,-6.31,0.7,7.46,14.6229104995728
,0,0.13,0.29,-0.31,0.9,-0.6,-3.15,0.04,1.14,2.28,8.44,0,0,0,-5.83,0.63,7.85,14.6393165588379
,0,0.13,0.27,-0.31,0.9,-0.42,-3.61,0.21,-0.31,1.97,10.55,0,0,0,-5.55,0.61,8.05,14.6584513187408
,0,0.11,0.24,-0.31,0.91,-0.34,-4.11,0.32,-1.94,1.66,10.46,0,0,0,-4.91,0.59,8.46,14.6731326580048
,0,0.1,0.2,-0.31,0.92,-0.32,-4.27,0.33,-2.27,0.98,8.68,0,0,0,-4.19,0.57,8.84,14.6899766921997
,0,0.09,0.18,-0.31,0.93,-0.25,-4.14,0.27,-2.86,0.51,9.28,0,0,0,-3.83,0.55,9,14.7089879512787
,0,0.08,0.14,-0.31,0.94,-0.24,-4,0.16,-3.31,1.05,11.85,0,0,0,-3.12,0.53,9.28,14.7233414649963
,0,0.06,0.11,-0.32,0.94,-0.28,-3.97,0.15,-3.31,1.25,12.16,0,0,0,-2.39,0.48,9.49,14.7405068874359
,0,0.06,0.09,-0.32,0.94,-0.35,-3.92,0.22,-3.27,1.66,13.56,0,0,0,-2.03,0.45,9.58,14.7591581344604
,0,0.04,0.06,-0.31,0.95,-0.42,-3.84,0.34,-4.11,2.28,14.73,0,0,0,-1.31,0.39,9.71,14.7734065055847
,0,0.02,0.02,-0.31,0.95,-0.46,-3.86,0.41,-4.41,2.53,14.13,0,0,0,-0.58,0.31,9.78,14.7905943393707
,0,0.01,-0.01,-0.31,0.95,-0.51,-3.71,0.53,-5.48,3.24,12.46,0,0,0,-0.23,0.26,9.8,14.8090291023254
,0,0,-0.02,-0.3,0.95,-0.43,-3.39,0.6,-6.5,3.38,12.62,0,0,0,0.42,0.17,9.79,14.8238024711609
,0,-0.01,-0.05,-0.3,0.95,-0.33,-3.25,0.63,-7.98,3.42,12.28,0,0,0,1.03,0.11,9.75,14.8414607048035
,0,-0.02,-0.08,-0.29,0.95,-0.1,-2.95,0.65,-9.11,2.64,10.11,0,0,0,1.31,0.09,9.71,14.8597986698151
,0,-0.02,-0.09,-0.29,0.95,0.1,-2.3,0.61,-10.64,1.48,8.38,0,0,0,1.78,0.08,9.64,14.874354839325
,0,-0.03,-0.1,-0.28,0.95,0.17,-1.88,0.53,-11.52,2.47,6.9,0,0,0,2.08,0.08,9.58,14.8913493156433
,0,-0.03,-0.11,-0.28,0.95,-0.01,-0.91,0.41,-12.9,0.48,8.69,0,0,0,2.16,0.07,9.56,14.909628868103
,0,-0.03,-0.11,-0.28,0.95,0.01,-0.39,0.15,-15.49,0.45,8.91,0,0,0,2.25,0.06,9.54,14.9244809150696
,0,-0.03,-0.11,-0.28,0.95,-0.02,-0.27,0.03,-14.6,1.53,6.64,0,0,0,2.26,0.04,9.54,14.9419386386871
,0,-0.04,-0.1,-0.28,0.96,-0.42,0.71,0.08,-15.35,8.9,-3.17,0,0,0,2.2,0,9.55,14.9594314098358
,0,-0.04,-0.09,-0.28,0.96,-1.81,1.91,0.57,5.33,-2.76,23.56,0,0,0,1.88,-0.31,9.61,14.9740188121796
,0,-0.04,-0.07,-0.27,0.96,-0.79,1.39,0.19,7.16,-3.64,11.79,0,0,0,1.56,-0.4,9.67,14.9918327331543
,0,-0.03,-0.04,-0.28,0.96,0.02,3.06,0.12,0.49,-5.55,15.75,0,0,0,1.27,-0.4,9.71,15.0100674629211
,0,-0.03,-0.03,-0.28,0.96,0.43,2.07,-0.3,-5.38,0.76,23.14,0,0,0,0.77,-0.32,9.77,15.0243053436279
,0,-0.03,-0.03,-0.28,0.96,0.15,0.78,-0.23,0.43,2.69,13.58,0,0,0,0.68,-0.31,9.77,15.042662858963
,0,-0.02,-0.02,-0.28,0.96,0.07,0.59,0,1.99,-3.8,11.14,0,0,0,0.63,-0.31,9.78,15.0603220462799
,0,-0.02,-0.02,-0.28,0.96,0.1,-0.03,0.05,3.63,1.29,7.59,0,0,0,0.57,-0.26,9.78,15.0747694969177
,0,-0.02,-0.02,-0.28,0.96,0.12,0.35,0.22,1.02,0.14,10.26,0,0,0,0.48,-0.24,9.79,15.0920717716217
,0,-0.02,-0.02,-0.28,0.96,0.15,0.21,0.01,1.11,0.98,10.08,0,0,0,0.46,-0.22,9.79,15.1102435588837
,0,-0.02,-0.02,-0.28,0.96,0.07,0.22,0,0.38,0.28,10.52,0,0,0,0.43,-0.2,9.79,15.1249096393585
,0,-0.02,-0.02,-0.28,0.96,0.03,0.13,-0.03,-0.13,0.85,11.41,0,0,0,0.42,-0.2,9.79,15.1425511837006
,0,-0.02,-0.02,-0.28,0.96,-0.02,0.02,-0.07,1.09,-0.02,10.06,0,0,0,0.42,-0.2,9.79,15.159853219986
,0,-0.02,-0.02,-0.28,0.96,-0.02,-0.08,-0.1,1.5,0.53,9.63,0,0,0,0.43,-0.2,9.79,15.1749105453491
,0,-0.02,-0.02,-0.28,0.96,-0.03,-0.05,-0.12,1.59,0.48,9.99,0,0,0,0.44,-0.21,9.79,15.192685842514
,0,-0.02,-0.02,-0.28,0.96,-0.02,-0.02,-0.11,1.34,0.26,9.47,0,0,0,0.44,-0.21,9.79,15.2109625339508
,0,-0.02,-0.02,-0.28,0.96,0.01,0.03,-0.08,0.89,0.65,10.06,0,0,0,0.43,-0.21,9.79,15.2254664897919
,0,-0.02,-0.02,-0.28,0.96,-0.01,0.03,-0.06,0.33,0.72,10.64,0,0,0,0.42,-0.21,9.79,15.243480682373
,0,-0.02,-0.02,-0.28,0.96,-0.02,0.02,-0.03,-0.05,0.41,9.54,0,0,0,0.42,-0.21,9.79,15.2609043121338
,0,-0.02,-0.02,-0.28,0.96,-0.01,-0.01,-0.07,0.22,0.98,9.89,0,0,0,0.42,-0.21,9.79,15.2756857872009
,0,-0.02,-0.02,-0.28,0.96,-0.04,-0.01,-0.05,0.52,0.41,10.36,0,0,0,0.42,-0.22,9.79,15.2926898002625
,0,-0.02,-0.02,-0.28,0.96,-0.04,0.03,-0.06,0.49,0.13,10.33,0,0,0,0.42,-0.22,9.79,15.3114655017853
,0,-0.02,-0.02,-0.28,0.96,-0.04,-0.1,-0.1,1.97,0.21,9.5,0,0,0,0.44,-0.23,9.79,15.3263092041016
,0,-0.02,-0.02,-0.29,0.96,-0.02,0.02,-0.05,1.19,0.14,9.68,0,0,0,0.43,-0.23,9.79,15.3440203666687
,0,-0.02,-0.02,-0.29,0.96,-0.01,0.07,-0.04,0.91,0.27,9.71,0,0,0,0.42,-0.23,9.79,15.361620426178
,0,-0.02,-0.02,-0.29,0.96,0.01,0.05,-0.01,1.19,0.08,9.72,0,0,0,0.41,-0.23,9.79,15.3759887218475
,0,-0.02,-0.02,-0.29,0.96,0.02,0.07,-0.02,0.49,0.2,9.81,0,0,0,0.41,-0.22,9.79,15.3947885036469
,0,-0.02,-0.02,-0.29,0.96,0.02,0.05,-0.02,0.53,0.13,9.67,0,0,0,0.4,-0.22,9.79,15.4137332439423
,0,-0.02,-0.02,-0.29,0.96,0,0.02,-0.04,0.68,0.44,9.71,0,0,0,0.4,-0.22,9.79,15.4289917945862
,0,-0.02,-0.02,-0.29,0.96,-0,0.03,-0.03,0.67,0.19,9.94,0,0,0,0.39,-0.22,9.79,15.4468047618866
,0,-0.02,-0.02,-0.29,0.96,0.01,0.03,-0.05,1.13,0.32,9.77,0,0,0,0.4,-0.19,9.79,15.465238571167
,0,-0.02,-0.02,-0.29,0.96,0.02,0.01,-0.04,0.93,0.43,9.56,0,0,0,0.4,-0.19,9.79,15.4799265861511
,0,-0.02,-0.02,-0.29,0.96,0,0.02,-0.04,0.91,0.04,9.78,0,0,0,0.4,-0.19,9.79,15.4983966350555
,0,-0.02,-0.02,-0.29,0.96,-0.01,0.01,-0.05,1.35,0.19,9.32,0,0,0,0.4,-0.19,9.79,15.5170772075653
,0,-0.02,-0.02,-0.29,0.96,-0.02,0.02,-0.06,1.32,0.25,9.76,0,0,0,0.4,-0.19,9.79,15.5317826271057
,0,-0.02,-0.02,-0.29,0.96,-0.02,0.05,-0.07,0.6,0.37,9.88,0,0,0,0.39,-0.19,9.79,15.550320148468
,0,-0.02,-0.02,-0.29,0.96,-0,0.01,-0.07,0.99,0.67,9.58,0,0,0,0.39,-0.2,9.79,15.5677084922791
,0,-0.02,-0.02,-0.29,0.96,-0.01,0.04,-0.05,0.49,0.28,9.69,0,0,0,0.39,-0.2,9.79,15.582843542099
,0,-0.02,-0.02,-0.29,0.96,-0.01,0.02,-0.03,0.95,0.28,9.73,0,0,0,0.38,-0.2,9.79,15.6006393432617
,0,-0.02,-0.02,-0.29,0.96,-0.05,0.02,-0.04,0.93,0.27,9.65,0,0,0,0.4,-0.18,9.79,15.6178579330444
,0,-0.01,-0.02,-0.29,0.96,-0.04,0.07,-0.03,0.48,0.27,9.86,0,0,0,0.39,-0.16,9.79,15.6328082084656
,0,-0.01,-0.02,-0.29,0.96,0.23,0.13,0.02,2.07,0.08,9.46,0,0,0,0.38,-0.14,9.79,15.651385307312
,0,-0.01,-0.01,-0.29,0.96,0.08,0.31,0.12,0.77,0.13,9.9,0,0,0,0.34,-0.12,9.79,15.6676511764526
,0,-0.01,-0.01,-0.29,0.96,0.13,0.32,0.03,-0.46,-0.04,8.49,0,0,0,0.27,-0.09,9.8,15.68314909935
,0,-0.01,-0.01,-0.29,0.96,0.32,0.43,0.09,0.51,-0.18,9.8,0,0,0,0.23,-0.06,9.8,15.7021591663361
,0,-0,-0.01,-0.29,0.96,0.04,0.47,0.05,0.49,1.49,9.74,0,0,0,0.14,-0.03,9.8,15.7185759544373
,0,-0,-0,-0.29,0.96,0.05,0.57,0.16,0.57,1.73,9.33,0,0,0,0.01,-0.02,9.8,15.733330488205
,0,0,0.01,-0.29,0.96,0.27,0.81,0.21,1.49,0.28,11.15,0,0,0,-0.05,0,9.8,15.7534613609314
,0,0,0.01,-0.28,0.96,0.09,0.78,0.23,1.35,0.43,9.78,0,0,0,-0.19,0.03,9.8,15.7693183422089
,0,0.01,0.02,-0.28,0.96,0.08,1.04,0.13,0.6,0.42,10.2,0,0,0,-0.4,0.05,9.79,15.784485578537
,0,0.01,0.03,-0.28,0.96,0.18,1.38,0.05,0.17,0.98,9.46,0,0,0,-0.53,0.07,9.79,15.8034162521362
,0,0.02,0.04,-0.28,0.96,0.18,1.77,0.07,0.82,0,9.47,0,0,0,-0.84,0.1,9.76,15.8192372322083
,0,0.02,0.06,-0.28,0.96,0.12,1.93,0.08,-0.77,0.19,10.57,0,0,0,-1.25,0.13,9.72,15.8345379829407
,0,0.03,0.08,-0.27,0.96,0.04,2.3,0.44,0.06,0.46,10.11,0,0,0,-1.46,0.14,9.69,15.8544499874115
,0,0.03,0.09,-0.27,0.96,0.09,2.4,0.22,8.06,0.14,9.42,0,0,0,-1.9,0.15,9.61,15.8702397346497
,0,0.05,0.13,-0.27,0.95,1,4.69,-0.49,2.15,-3.22,11.62,0,0,0,-2.66,0.26,9.43,15.8847639560699
,0,0.08,0.17,-0.28,0.94,1.56,5.22,-0.66,2.08,-1.14,11.47,0,0,0,-3.14,0.38,9.28,15.905261516571
,0,0.1,0.2,-0.28,0.93,2.29,6.17,-0.75,5.36,1.36,11.33,0,0,0,-4.19,0.71,8.83,15.9206178188324
,0,0.15,0.26,-0.28,0.91,3.04,8.53,-0.34,2.07,0.91,7.91,0,0,0,-5.51,1.14,8.02,15.9354355335236
,0,0.19,0.33,-0.28,0.88,3.15,9.23,-0.06,-0.05,2.46,8.45,0,0,0,-6.2,1.37,7.46,15.9552037715912
,0,0.21,0.36,-0.29,0.86,2.37,7.24,-2.03,-11.32,0.47,39.52,0,0,0,-7.31,1.49,6.35,15.9705185890198
,0,0.2,0.38,-0.31,0.85,-0.89,0.11,-2.8,-12.76,9.26,20.22,0,0,0,-7.55,1,6.17,15.9859654903412
,0,0.18,0.37,-0.31,0.86,-1.03,-1.49,-0.42,8.35,-1.11,11.66,0,0,0,-7.46,0.91,6.29,16.0055484771729
,0,0.17,0.36,-0.32,0.86,-1.22,-2,-0.93,4.48,1.7,8.33,0,0,0,-7.2,0.66,6.61,16.0210027694702
,0,0.15,0.35,-0.32,0.87,-1.03,-2.41,-0.63,3.9,2.85,7.36,0,0,0,-6.92,0.42,6.92,16.0362045764923
,0,0.14,0.33,-0.33,0.88,-0.92,-2.57,-0.43,3.31,2.8,6.71,0,0,0,-6.56,0.26,7.28,16.0568499565125
,0,0.13,0.32,-0.33,0.88,-0.57,-2.95,-0.04,2.56,2.38,6.06,0,0,0,-6.35,0.21,7.46,16.0712428092957
,0,0.12,0.29,-0.33,0.89,-0.22,-3.22,0.27,0.93,2.32,9.1,0,0,0,-5.88,0.19,7.84,16.0865838527679
,0,0.11,0.26,-0.33,0.9,-0.17,-3.45,0.42,0.52,2.31,9.6,0,0,0,-5.33,0.22,8.22,16.1064472198486
,0,0.1,0.25,-0.33,0.91,-0.27,-3.84,0.65,-1.04,0.86,9.23,0,0,0,-5.01,0.23,8.42,16.1221995353699
,0,0.09,0.21,-0.32,0.92,-0.24,-4.03,0.64,-1.96,-0.11,10.04,0,0,0,-4.35,0.24,8.78,16.1373882293701
,0,0.07,0.17,-0.32,0.93,-0.2,-4.09,0.55,-2.5,-0.06,11.74,0,0,0,-3.63,0.25,9.1,16.1569797992706
,0,0.07,0.16,-0.32,0.93,-0.21,-4.2,0.39,-2.99,0.47,12.38,0,0,0,-3.26,0.25,9.24,16.1717870235443
,0,0.05,0.12,-0.32,0.94,-0.33,-4.22,0.31,-2.89,0.96,12.86,0,0,0,-2.49,0.21,9.48,16.1882102489471
,0,0.04,0.08,-0.32,0.94,-0.34,-4.19,0.31,-2.84,1.21,13,0,0,0,-1.72,0.16,9.65,16.2071704864502
,0,0.03,0.06,-0.32,0.95,-0.31,-4.09,0.39,-2.83,1.97,13.5,0,0,0,-1.33,0.13,9.71,16.2220039367676
,0,0.01,0.03,-0.31,0.95,-0.36,-3.89,0.55,-3.94,3.45,13.74,0,0,0,-0.59,0.08,9.78,16.2382154464722
,0,-0,-0.01,-0.31,0.95,-0.43,-3.73,0.66,-4.67,3.51,14.3,0,0,0,0.1,0,9.8,16.2577018737793
,0,-0.01,-0.02,-0.3,0.95,-0.45,-3.53,0.82,-7.26,3.67,14.85,0,0,0,0.43,-0.04,9.79,16.2725944519043
,0,-0.02,-0.05,-0.29,0.95,-0.34,-3.4,0.9,-8.98,3.07,12.83,0,0,0,1.08,-0.12,9.74,16.2893826961517
,0,-0.03,-0.08,-0.29,0.95,-0.24,-3.22,0.9,-11.75,1.34,9.37,0,0,0,1.66,-0.18,9.66,16.3079297542572
,0,-0.04,-0.09,-0.28,0.95,-0.04,-2.58,0.73,-12.75,1.3,8.22,0,0,0,1.9,-0.2,9.61,16.3227517604828
,0,-0.04,-0.11,-0.28,0.95,-0.03,-1.5,0.57,-13.87,0.9,5.96,0,0,0,2.23,-0.22,9.54,16.3389806747437
,0,-0.04,-0.11,-0.27,0.95,0,-0.9,0.44,-16.89,0.55,9.92,0,0,0,2.35,-0.24,9.51,16.3575699329376
,0,-0.05,-0.11,-0.27,0.95,0.04,-0.2,0.19,-17.57,1.34,8.49,0,0,0,2.37,-0.24,9.51,16.3728032112122
,0,-0.05,-0.11,-0.27,0.96,-0.18,0.31,0.13,-14.99,2.95,2.67,0,0,0,2.34,-0.26,9.51,16.3890662193298
,0,-0.05,-0.1,-0.27,0.96,-0.29,0.9,0.18,-14.24,5.93,1.26,0,0,0,2.15,-0.39,9.55,16.407657623291
,0,-0.05,-0.09,-0.27,0.96,-1.13,1.26,0.37,9.78,-2.36,18.77,0,0,0,2.03,-0.51,9.58,16.4229054450989
,0,-0.05,-0.08,-0.27,0.96,0.03,2.29,0.06,2.98,-5.99,0.66,0,0,0,1.67,-0.52,9.64,16.4392511844635
,0,-0.04,-0.04,-0.27,0.96,0.29,3.38,0.12,0.28,-4.77,14.51,0,0,0,1.03,-0.44,9.74,16.4583411216736
,0,-0.03,-0.03,-0.27,0.96,0.65,2.51,-0.31,-4.25,1.2,20.3,0,0,0,0.79,-0.38,9.76,16.4729323387146
,0,-0.03,-0.03,-0.27,0.96,0.17,0.49,-0.14,2.28,0.42,11.17,0,0,0,0.65,-0.32,9.77,16.4892747402191
,0,-0.02,-0.02,-0.27,0.96,0.19,0.6,-0.03,-0.71,-1.4,15.91,0,0,0,0.53,-0.27,9.78,16.5082650184631
,0,-0.02,-0.02,-0.27,0.96,0.25,0.2,0.06,2.4,0.83,9.24,0,0,0,0.51,-0.24,9.78,16.5228943824768
,0,-0.02,-0.02,-0.27,0.96,0.15,0.51,0.08,-0.53,0.99,11.7,0,0,0,0.42,-0.22,9.79,16.5390136241913
,0,-0.02,-0.02,-0.27,0.96,0.16,0.28,0.03,-0.1,0.93,10.48,0,0,0,0.38,-0.19,9.79,16.5580978393555
,0,-0.01,-0.02,-0.27,0.96,0.06,0.11,0,1.21,0.2,9.85,0,0,0,0.37,-0.19,9.79,16.5729908943176
,0,-0.01,-0.01,-0.27,0.96,-0.06,0.09,-0.03,0.8,0.23,9.92,0,0,0,0.35,-0.19,9.79,16.588392496109
,0,-0.02,-0.01,-0.27,0.96,-0.11,-0,-0.03,1.2,-0.14,9.87,0,0,0,0.35,-0.21,9.79,16.6079280376434
,0,-0.02,-0.01,-0.27,0.96,-0.09,-0.1,-0.11,1.43,-0.19,9.41,0,0,0,0.36,-0.22,9.79,16.622251033783
,0,-0.02,-0.02,-0.27,0.96,-0.05,-0.05,-0.08,0.89,0.25,10.21,0,0,0,0.38,-0.23,9.79,16.6379518508911
,0,-0.02,-0.02,-0.27,0.96,-0.04,-0.06,-0.08,1.09,0.35,9.54,0,0,0,0.38,-0.23,9.79,16.6578998565674
,0,-0.02,-0.02,-0.27,0.96,-0.01,0.03,-0.02,0.14,0.42,10.34,0,0,0,0.38,-0.24,9.79,16.6724011898041
,0,-0.02,-0.02,-0.27,0.96,-0.02,0.04,-0,-0.21,0.55,10.26,0,0,0,0.37,-0.24,9.79,16.6878924369812
,0,-0.02,-0.02,-0.27,0.96,-0.01,0.02,-0.01,0.43,0.74,10.19,0,0,0,0.38,-0.24,9.79,16.7078280448914
,0,-0.02,-0.02,-0.27,0.96,-0.02,-0.02,-0.03,0.8,0.17,9.84,0,0,0,0.38,-0.24,9.79,16.7227191925049
,0,-0.02,-0.02,-0.27,0.96,-0.04,0.01,-0.04,1.25,0.31,9.72,0,0,0,0.38,-0.25,9.79,16.7379639148712
,0,-0.02,-0.02,-0.27,0.96,-0.07,-0.02,-0.06,1.64,-0.22,9.9,0,0,0,0.38,-0.26,9.79,16.7578904628754
,0,-0.02,-0.02,-0.27,0.96,-0.05,-0.01,-0.09,1.83,0.14,9.8,0,0,0,0.38,-0.27,9.79,16.7724783420563
,0,-0.02,-0.01,-0.27,0.96,-0.05,0.02,-0.08,1.22,0.12,9.89,0,0,0,0.38,-0.27,9.79,16.7880961894989
,0,-0.02,-0.01,-0.28,0.96,-0.03,0.02,-0.05,1.52,0,9.61,0,0,0,0.38,-0.28,9.79,16.8080558776855
,0,-0.02,-0.01,-0.28,0.96,0.02,0.08,-0.02,0.65,0.28,9.54,0,0,0,0.37,-0.28,9.79,16.8226656913757
,0,-0.02,-0.01,-0.28,0.96,0.03,0.09,-0.02,-0.16,0.29,9.9,0,0,0,0.35,-0.27,9.79,16.8386707305908
,0,-0.02,-0.01,-0.28,0.96,0.03,0.03,-0.02,-0.12,0.36,9.84,0,0,0,0.34,-0.26,9.79,16.8584599494934
,0,-0.02,-0.01,-0.28,0.96,0.02,0,-0.03,-0.01,0.17,9.69,0,0,0,0.34,-0.26,9.79,16.8729763031006
,0,-0.02,-0.01,-0.28,0.96,0.02,-0,-0.04,0.83,0.36,9.58,0,0,0,0.35,-0.26,9.79,16.8885273933411
,0,-0.02,-0.01,-0.28,0.96,0,-0.07,-0.09,1.46,0.56,9.58,0,0,0,0.36,-0.26,9.79,16.9089851379395
,0,-0.02,-0.01,-0.28,0.96,0.02,0.02,-0.05,1.33,0.46,9.76,0,0,0,0.36,-0.26,9.79,16.9232802391052
,0,-0.02,-0.01,-0.28,0.96,0.01,0.01,-0.05,1.88,0.17,9.57,0,0,0,0.36,-0.25,9.79,16.9389986991882
,0,-0.02,-0.01,-0.28,0.96,0.03,-0.03,-0.07,2.13,0.21,9.53,0,0,0,0.36,-0.25,9.79,16.9588928222656
,0,-0.02,-0.01,-0.28,0.96,0.01,0.04,-0.06,1.29,0.19,9.61,0,0,0,0.36,-0.25,9.79,16.9732234477997
,0,-0.02,-0.01,-0.28,0.96,0.01,0.05,-0.06,0.66,0.13,9.97,0,0,0,0.35,-0.24,9.79,16.9888741970062
,0,-0.02,-0.01,-0.28,0.96,0.01,0.04,-0.07,0.88,0.36,9.77,0,0,0,0.34,-0.24,9.79,17.0087087154388
,0,-0.02,-0.01,-0.28,0.96,-0.01,0.06,-0.04,0.18,0.16,9.84,0,0,0,0.34,-0.24,9.79,17.0231227874756
,0,-0.02,-0.01,-0.28,0.96,0,0.07,-0.03,0.45,0.38,9.93,0,0,0,0.32,-0.24,9.79,17.0390467643738
,0,-0.02,-0.01,-0.28,0.96,0.01,0.02,-0.03,0.45,0.43,9.65,0,0,0,0.32,-0.24,9.79,17.058703660965
,0,-0.02,-0.01,-0.28,0.96,-0.03,0.05,-0.04,0.45,0.25,9.71,0,0,0,0.31,-0.25,9.79,17.073659658432
,0,-0.02,-0.01,-0.28,0.96,0.02,0.1,-0.01,1.03,-0.13,9.24,0,0,0,0.3,-0.24,9.79,17.0894923210144
,0,-0.02,-0.01,-0.28,0.96,0.04,0.03,-0.03,1.22,-0.27,9.55,0,0,0,0.3,-0.24,9.79,17.1087989807129
,0,-0.02,-0.01,-0.28,0.96,0.13,0.13,-0.04,0.34,-0.15,7.64,0,0,0,0.28,-0.22,9.79,17.1234655380249
,0,-0.01,-0.01,-0.28,0.96,0.06,0.23,-0.04,0.98,0.17,11.21,0,0,0,0.22,-0.21,9.8,17.1393949985504
,0,-0.01,-0,-0.28,0.96,0.02,0.36,0.03,0.39,0.66,10.3,0,0,0,0.19,-0.21,9.8,17.1588571071625
,0,-0.01,-0,-0.28,0.96,0.08,0.52,0.03,1.88,0.46,9.21,0,0,0,0.1,-0.18,9.8,17.1732759475708
,0,-0.01,0,-0.28,0.96,0.15,0.65,-0.05,2.09,0.98,9.79,0,0,0,0,-0.17,9.8,17.189106464386
,0,-0.01,0.01,-0.28,0.96,0.05,0.69,0.16,0.35,0.08,10.36,0,0,0,-0.07,-0.16,9.8,17.2095587253571
,0,-0,0.01,-0.28,0.96,0.24,1,0.15,0.61,0.3,10.57,0,0,0,-0.26,-0.12,9.8,17.2236611843109
,0,0,0.02,-0.28,0.96,0.27,0.99,0.25,1.07,0.39,9.67,0,0,0,-0.45,-0.08,9.79,17.2388327121735
,0,0.01,0.04,-0.28,0.96,0.17,1.52,0.16,0.17,0.84,10.14,0,0,0,-0.6,-0.07,9.78,17.2594766616821
,0,0.01,0.05,-0.27,0.96,0.22,1.85,0.21,2.73,-1.27,9.41,0,0,0,-0.94,-0.02,9.76,17.2743165493011
,0,0.02,0.07,-0.27,0.96,0.21,1.85,0.1,-1.06,0.77,10.82,0,0,0,-1.35,0.01,9.71,17.2895324230194
,0,0.03,0.09,-0.26,0.96,-0.02,2.66,1.03,3.28,-2.26,9.89,0,0,0,-1.6,0.02,9.67,17.3090715408325
,0,0.04,0.11,-0.26,0.96,0.91,4.12,-0.04,-2.42,-0.03,12.61,0,0,0,-2.24,0.12,9.54,17.3236045837402
,0,0.07,0.16,-0.27,0.95,1.65,5.39,-0.2,2.9,-1.8,11.87,0,0,0,-3.26,0.46,9.23,17.339447259903
,0,0.11,0.21,-0.27,0.93,3.23,6.31,-0.76,2.91,4.74,11.32,0,0,0,-3.82,0.72,9,17.3592767715454
,0,0.14,0.24,-0.27,0.92,3.34,8.16,0.12,4.61,0.18,13.54,0,0,0,-5.1,1.23,8.27,17.3738534450531
,0,0.19,0.3,-0.28,0.89,3.46,7.73,-0.54,-12.13,-0.42,37.5,0,0,0,-6.25,1.66,7.36,17.3893342018127
,0,0.18,0.33,-0.3,0.88,0.7,4.52,-2.92,-11.52,3.39,29.7,0,0,0,-6.61,1.53,7.07,17.4092547893524
,0,0.17,0.33,-0.3,0.88,-1.28,-0.6,-1.89,-2.75,5.86,15.47,0,0,0,-6.67,0.98,7.12,17.4244952201843
,0,0.15,0.32,-0.31,0.88,-1.06,-1.89,-0.96,3.73,2.35,6.47,0,0,0,-6.44,0.68,7.36,17.4392380714417
,0,0.14,0.31,-0.32,0.88,-0.95,-1.31,-1.35,3.65,3.3,5.95,0,0,0,-6.35,0.53,7.45,17.4594173431396
,0,0.13,0.3,-0.33,0.88,-0.69,-1.67,-0.93,3.81,3.49,6.5,0,0,0,-6.11,0.29,7.65,17.4735703468323
,0,0.12,0.29,-0.33,0.89,-0.53,-1.76,-0.64,3.11,3.15,7.97,0,0,0,-5.83,0.16,7.87,17.4892494678497
,0,0.11,0.27,-0.34,0.9,-0.34,-2.23,-0.16,2.51,2.79,8.66,0,0,0,-5.66,0.12,8,17.5094592571259
,0,0.1,0.26,-0.34,0.9,-0.23,-2.84,0.19,0.99,1.11,8.92,0,0,0,-5.24,0.09,8.28,17.5242083072662
,0,0.09,0.23,-0.34,0.91,-0.18,-3.12,0.27,0.6,0.56,8.82,0,0,0,-4.71,0.09,8.59,17.5393614768982
,0,0.08,0.2,-0.34,0.92,-0.11,-3.45,0.27,-0.74,-0.05,9.2,0,0,0,-4.42,0.1,8.75,17.5596451759338
,0,0.07,0.18,-0.34,0.92,-0.08,-3.65,0.15,-1.36,-0.3,9.59,0,0,0,-3.8,0.1,9.03,17.5742456912994
,0,0.06,0.15,-0.34,0.93,-0.03,-3.68,0.08,-1.77,0.44,10.26,0,0,0,-3.15,0.1,9.28,17.5893814563751
,0,0.05,0.12,-0.34,0.93,-0.01,-3.67,0.03,-1.73,0.96,10.84,0,0,0,-2.81,0.1,9.39,17.6094777584076
,0,0.04,0.1,-0.34,0.93,0.02,-3.62,0.13,-1.62,1.73,10.68,0,0,0,-2.15,0.1,9.56,17.624258518219
,0,0.03,0.07,-0.34,0.94,0.06,-3.59,0.21,-1.83,1.88,11.17,0,0,0,-1.49,0.12,9.69,17.6399202346802
,0,0.02,0.04,-0.34,0.94,0.09,-3.36,0.39,-2.01,2.05,13.36,0,0,0,-1.17,0.14,9.73,17.6596517562866
,0,0.02,0.02,-0.33,0.94,0.02,-3.32,0.53,-4.65,4.31,16.98,0,0,0,-0.55,0.15,9.78,17.6741783618927
,0,0,-0.01,-0.33,0.94,-0.07,-3.53,0.63,-4.95,4.72,15.23,0,0,0,0.12,0.13,9.8,17.6901144981384
,0,-0,-0.02,-0.32,0.95,-0.17,-3.59,0.9,-6.81,3.92,11.61,0,0,0,0.47,0.11,9.79,17.7100305557251
,0,-0.01,-0.05,-0.31,0.95,-0.01,-3.17,1.05,-8.17,2.99,11.13,0,0,0,1.09,0.09,9.74,17.7244915962219
,0,-0.02,-0.08,-0.3,0.95,0.04,-2.92,1.05,-8.7,2.45,10.59,0,0,0,1.61,0.07,9.67,17.7393729686737
,0,-0.03,-0.09,-0.3,0.95,0.07,-2.24,0.89,-10.26,0.46,8.85,0,0,0,1.82,0.06,9.63,17.7597970962524
,0,-0.03,-0.1,-0.29,0.95,0.03,-1.33,0.57,-12.2,1.01,9.58,0,0,0,2.12,0.05,9.57,17.7743892669678
,0,-0.03,-0.11,-0.29,0.95,-0.15,-0.92,0.43,-14.89,-0.45,8.71,0,0,0,2.26,0,9.54,17.7899196147919
,0,-0.04,-0.11,-0.29,0.95,-0.15,-0.43,0.11,-15.87,0.95,6.1,0,0,0,2.3,0,9.53,17.809547662735
,0,-0.04,-0.11,-0.29,0.95,-0.34,0.49,0.02,-14.96,4.99,3.78,0,0,0,2.27,-0.05,9.53,17.8242650032043
,0,-0.04,-0.1,-0.29,0.95,-0.59,1.09,0.17,-12.47,11.02,3.22,0,0,0,2.04,-0.26,9.58,17.8403627872467
,0,-0.05,-0.08,-0.28,0.96,-2.21,1.16,1.29,6.57,-4.96,6.66,0,0,0,1.93,-0.49,9.6,17.8599646091461
,0,-0.05,-0.07,-0.28,0.96,-0.45,2.19,0.39,-0.49,-11.8,1.6,0,0,0,1.6,-0.62,9.65,17.8745436668396
,0,-0.05,-0.04,-0.28,0.96,-0.2,3.06,0.15,-0.11,-7.85,13.66,0,0,0,1.01,-0.62,9.73,17.8902590274811
,0,-0.04,-0.02,-0.28,0.96,0.37,2.57,-0.46,-2.04,3.16,18.98,0,0,0,0.77,-0.58,9.75,17.9100885391235
,0,-0.04,-0.02,-0.28,0.96,0.05,0.9,-0.01,0.14,-1.71,14.54,0,0,0,0.53,-0.55,9.77,17.9249122142792
,0,-0.03,-0.01,-0.29,0.96,0.1,0.56,-0.01,-1.46,1.7,11.76,0,0,0,0.45,-0.51,9.78,17.9405810832977
,0,-0.03,-0.01,-0.28,0.96,0.11,0.31,0.13,2.15,-0.16,11.37,0,0,0,0.42,-0.5,9.78,17.9599289894104
,0,-0.03,-0.01,-0.28,0.96,0.2,0.49,0.02,1.34,0.34,9.84,0,0,0,0.28,-0.46,9.79,17.9745995998383
,0,-0.02,-0.01,-0.28,0.96,0.25,0.24,0.04,-0.34,0.55,10.96,0,0,0,0.23,-0.41,9.79,17.9903538227081
,0,-0.02,-0.01,-0.28,0.96,0.14,0.05,-0.05,1.07,0.02,9.79,0,0,0,0.22,-0.4,9.79,18.0098643302917
,0,-0.02,-0,-0.29,0.96,0.13,0.09,-0.09,0.57,-0.17,10.35,0,0,0,0.2,-0.37,9.79,18.024603843689
,0,-0.02,-0.01,-0.29,0.96,0.1,-0.07,-0.13,1.08,-0.23,10.37,0,0,0,0.22,-0.35,9.79,18.0397374629974
,0,-0.02,-0.01,-0.29,0.96,0.08,-0.12,-0.17,1.39,0.5,9.92,0,0,0,0.23,-0.35,9.79,18.0596432685852
,0,-0.02,-0.01,-0.29,0.96,0.01,-0.02,-0.11,1.07,0.35,9.57,0,0,0,0.24,-0.34,9.79,18.0745482444763
,0,-0.02,-0.01,-0.29,0.96,0.01,-0.03,-0.12,1.08,0.88,10.32,0,0,0,0.24,-0.34,9.79,18.0902106761932
,0,-0.02,-0.01,-0.29,0.96,-0.01,-0.02,-0.04,0.49,1.21,9.88,0,0,0,0.25,-0.34,9.79,18.1096725463867
,0,-0.02,-0.01,-0.29,0.96,0,-0.02,0.04,-0.19,0.45,10.31,0,0,0,0.25,-0.34,9.79,18.1244075298309
,0,-0.02,-0.01,-0.29,0.96,0.01,-0.03,0.04,-0.13,0.46,10.19,0,0,0,0.25,-0.34,9.79,18.1397974491119
,0,-0.02,-0.01,-0.29,0.96,0.02,-0.1,0.05,0.34,0.08,9.81,0,0,0,0.27,-0.34,9.79,18.1596217155457
,0,-0.02,-0.01,-0.29,0.96,-0.02,-0.03,-0.07,0.5,0.53,10.42,0,0,0,0.28,-0.34,9.79,18.1743242740631
,0,-0.02,-0.01,-0.29,0.96,-0.02,-0.13,-0.07,1.02,0.18,9.36,0,0,0,0.29,-0.34,9.79,18.1895682811737
,0,-0.02,-0.01,-0.29,0.96,-0.02,-0.08,-0.09,1.6,0.19,9.66,0,0,0,0.31,-0.34,9.79,18.2096621990204
,0,-0.02,-0.01,-0.29,0.96,0.01,0.04,-0.02,1.6,0.07,9.56,0,0,0,0.31,-0.34,9.79,18.2241032123566
,0,-0.02,-0.01,-0.29,0.96,0.02,0.06,-0.02,1.47,0.17,9.76,0,0,0,0.3,-0.34,9.79,18.239506483078
,0,-0.02,-0.01,-0.29,0.96,0.03,0.06,-0.01,1.02,0.29,9.58,0,0,0,0.29,-0.34,9.79,18.2591845989227
,0,-0.02,-0.01,-0.29,0.96,0.02,0.07,-0.02,0.65,0.42,9.74,0,0,0,0.28,-0.33,9.79,18.2741076946259
,0,-0.02,-0.01,-0.29,0.96,0.02,0.07,-0.02,0.34,0.29,9.67,0,0,0,0.27,-0.33,9.79,18.2894382476807
,0,-0.02,-0.01,-0.29,0.96,0.01,0.06,-0.03,0.12,0.36,9.79,0,0,0,0.26,-0.33,9.79,18.3094258308411
,0,-0.02,-0.01,-0.29,0.96,0.01,0.06,-0.03,0.28,0.29,9.73,0,0,0,0.25,-0.33,9.79,18.3236794471741
,0,-0.02,-0.01,-0.29,0.96,0.01,0.03,-0.03,0.63,0.28,9.8,0,0,0,0.25,-0.33,9.79,18.3387725353241
,0,-0.02,-0.01,-0.29,0.96,0.02,-0.01,-0.02,1.12,0.23,9.72,0,0,0,0.25,-0.32,9.79,18.3582973480225
,0,-0.02,-0.01,-0.29,0.96,0,-0.01,-0.06,1.37,0.29,9.86,0,0,0,0.25,-0.32,9.79,18.3735961914062
,0,-0.02,-0.01,-0.29,0.96,0.01,-0.03,-0.05,1.19,0.49,9.53,0,0,0,0.26,-0.32,9.79,18.3886384963989
,0,-0.02,-0.01,-0.29,0.96,0.04,-0.02,-0.04,1.03,0.44,9.47,0,0,0,0.26,-0.31,9.79,18.4054198265076
,0,-0.02,-0.01,-0.29,0.96,0.02,0.06,-0.03,0.95,0.14,10.1,0,0,0,0.25,-0.31,9.79,18.4223968982697
,0,-0.02,-0.01,-0.29,0.96,0.01,0.03,-0.04,0.77,0.35,9.74,0,0,0,0.25,-0.31,9.79,18.4369938373566
,0,-0.02,-0.01,-0.29,0.96,0.02,0.02,-0.03,0.1,0.26,9.74,0,0,0,0.24,-0.31,9.79,18.4531388282776
,0,-0.02,-0.01,-0.29,0.96,0,0.06,-0.03,-0.22,0.28,10.04,0,0,0,0.24,-0.31,9.79,18.4717175960541
,0,-0.02,-0.01,-0.29,0.96,0.02,0.01,-0.05,0.7,0.47,9.73,0,0,0,0.23,-0.3,9.79,18.4862124919891
,0,-0.02,-0.01,-0.29,0.96,0.06,0,-0,0.04,0.18,9.79,0,0,0,0.23,-0.3,9.79,18.5028731822968
,0,-0.02,-0.01,-0.29,0.96,0.03,0.06,-0.02,1.18,-0.35,9.67,0,0,0,0.22,-0.29,9.79,18.5222189426422
,0,-0.02,-0.01,-0.29,0.96,0.11,0.1,-0.01,2.08,0.33,10.3,0,0,0,0.21,-0.28,9.8,18.5364809036255
,0,-0.02,-0,-0.29,0.96,0.06,0.08,-0.04,0.8,0.75,9.81,0,0,0,0.18,-0.26,9.8,18.5526094436646
,0,-0.01,-0,-0.3,0.96,0.13,0.34,-0.01,-0.3,0.37,8.48,0,0,0,0.14,-0.25,9.8,18.5715508460999
,0,-0.01,0,-0.29,0.96,0.2,0.5,0.04,1.97,-0.3,11.86,0,0,0,0.06,-0.22,9.8,18.5860195159912
,0,-0.01,0.01,-0.29,0.96,0.08,0.5,0.01,0.74,1.17,9.46,0,0,0,-0.04,-0.2,9.8,18.6023676395416
,0,-0.01,0.01,-0.29,0.96,0.08,0.67,0.08,0.77,0.55,10.23,0,0,0,-0.1,-0.2,9.8,18.6217331886292
,0,-0,0.01,-0.29,0.96,0.18,0.76,0.32,1.31,0.85,10.09,0,0,0,-0.23,-0.17,9.8,18.6360337734222
,0,-0,0.02,-0.29,0.96,0.05,0.77,0.17,1.15,0.6,10.15,0,0,0,-0.35,-0.13,9.79,18.6527614593506
,0,0,0.02,-0.29,0.96,0.13,1.09,0.16,0.73,0.11,9.76,0,0,0,-0.46,-0.12,9.79,18.6718101501465
,0,0.01,0.04,-0.29,0.96,0.14,1.52,0.3,1,0.34,9.92,0,0,0,-0.73,-0.09,9.77,18.6862564086914
,0,0.01,0.05,-0.29,0.96,0.12,1.71,0.18,1.16,0.66,10.03,0,0,0,-1.08,-0.07,9.74,18.7029764652252
,0,0.02,0.06,-0.28,0.96,0.03,2.18,0.04,1.46,-0.26,9.89,0,0,0,-1.29,-0.07,9.72,18.7221744060516
,0,0.02,0.08,-0.28,0.96,0.09,2.1,0.39,2.23,-0.05,9.22,0,0,0,-1.69,-0.05,9.65,18.7366232872009
,0,0.03,0.11,-0.28,0.95,-0.05,2.45,0.68,8.88,-0.9,10.5,0,0,0,-2.23,-0.04,9.54,18.753231048584
,0,0.04,0.13,-0.28,0.95,0.73,4.72,-0.24,0.55,-1.24,12.53,0,0,0,-2.66,0.01,9.43,18.7720081806183
,0,0.07,0.18,-0.28,0.94,1.98,5.81,-0.76,0.66,2.44,14.17,0,0,0,-3.66,0.28,9.09,18.787003993988
,0,0.11,0.23,-0.29,0.92,2.58,6.58,-0.68,4.98,3.38,10.07,0,0,0,-4.87,0.67,8.48,18.8031282424927
,0,0.16,0.3,-0.29,0.9,2.64,8.43,-0.37,1.82,-0.42,16.13,0,0,0,-5.54,0.86,8.03,18.8224632740021
,0,0.17,0.33,-0.3,0.88,2.41,6.84,-1.91,-9.86,0.64,36.33,0,0,0,-6.66,1.11,7.1,18.8369846343994
,0,0.17,0.35,-0.32,0.86,1.32,4.43,-2.69,-10.42,2.03,28.04,0,0,0,-7.07,0.73,6.75,18.8538205623627
,0,0.16,0.35,-0.33,0.86,-1.12,-0.82,-2,8.37,-1.08,8.64,0,0,0,-7.02,0.52,6.81,18.872184753418
,0,0.15,0.34,-0.33,0.87,-0.61,-1.7,-1.31,3.54,2.35,6.84,0,0,0,-6.78,0.27,7.07,18.8869874477386
,0,0.14,0.33,-0.34,0.87,-0.6,-1.44,-1.16,3.64,2.52,6.81,0,0,0,-6.56,0.05,7.28,18.9043817520142
,0,0.12,0.32,-0.35,0.87,-0.36,-1.94,-0.77,3.13,2.4,9.37,0,0,0,-6.42,-0.01,7.4,18.9232175350189
,0,0.12,0.31,-0.35,0.88,-0.13,-2.63,-0.36,2,2.51,9.92,0,0,0,-6.07,-0.1,7.69,18.9373948574066
,0,0.11,0.28,-0.36,0.88,-0.09,-3.03,-0.15,1.38,2.09,7.59,0,0,0,-5.59,-0.12,8.05,18.9548511505127
,0,0.09,0.25,-0.36,0.89,-0.1,-3.39,0.18,0.05,0.78,7.19,0,0,0,-5.32,-0.12,8.23,18.9729814529419
,0,0.09,0.23,-0.36,0.9,-0.02,-3.53,0.3,-0.89,-0.36,8.99,0,0,0,-4.75,-0.09,8.57,18.9876456260681
,0,0.08,0.2,-0.36,0.91,-0.01,-3.54,0.28,-1.63,-0.42,10.33,0,0,0,-4.15,-0.07,8.88,19.0048499107361
,0,0.06,0.17,-0.36,0.91,-0.03,-3.73,0.17,-2.78,-0.04,12.14,0,0,0,-3.83,-0.07,9.02,19.02374958992
,0,0.06,0.15,-0.36,0.92,-0.1,-3.99,0.09,-2.65,0.78,11.2,0,0,0,-3.13,-0.08,9.29,19.0382611751556
,0,0.04,0.12,-0.36,0.92,-0.19,-4,0.11,-2.59,0.56,11.37,0,0,0,-2.41,-0.11,9.5,19.055107831955
,0,0.02,0.08,-0.36,0.93,-0.26,-3.9,0.15,-2.86,1.21,12.15,0,0,0,-2.05,-0.13,9.58,19.0733969211578
,0,0.02,0.07,-0.36,0.93,-0.29,-3.82,0.25,-2.6,1.73,11.73,0,0,0,-1.33,-0.18,9.71,19.0883691310883
,0,-0,0.04,-0.36,0.93,-0.37,-3.69,0.31,-2.57,1.87,13.51,0,0,0,-0.64,-0.24,9.78,19.1057798862457
,0,-0.02,0.01,-0.35,0.94,-0.43,-3.5,0.38,-3.24,3.05,14.39,0,0,0,-0.31,-0.28,9.79,19.1235678195953
,0,-0.02,-0.01,-0.35,0.94,-0.34,-3.5,0.5,-4.73,4.1,13.58,0,0,0,0.34,-0.35,9.79,19.1381206512451
,0,-0.04,-0.04,-0.34,0.94,-0.24,-3.43,0.58,-5.61,4.08,13.09,0,0,0,0.98,-0.39,9.74,19.1559607982635
,0,-0.05,-0.07,-0.34,0.94,0.06,-3.22,0.74,-6.98,3.51,10.9,0,0,0,1.28,-0.4,9.71,19.1739597320557
,0,-0.05,-0.08,-0.33,0.94,0.37,-2.67,0.81,-8.87,2,8.89,0,0,0,1.8,-0.37,9.63,19.1884541511536
,0,-0.05,-0.1,-0.32,0.94,0.5,-2.29,0.78,-9.7,3.41,7.05,0,0,0,2.17,-0.32,9.55,19.2056562900543
,0,-0.05,-0.11,-0.32,0.94,0.17,-1.15,0.74,-12.69,0.22,7.04,0,0,0,2.27,-0.32,9.53,19.2232913970947
,0,-0.05,-0.11,-0.31,0.94,0.19,-0.2,0.5,-15.3,-0.21,11.84,0,0,0,2.35,-0.31,9.51,19.2378399372101
,0,-0.05,-0.11,-0.31,0.94,0.31,-0.08,0.32,-16.25,1,9.83,0,0,0,2.36,-0.26,9.51,19.2558245658875
,0,-0.05,-0.11,-0.31,0.94,0.2,0.2,0.34,-14.18,3.79,4.32,0,0,0,2.34,-0.25,9.51,19.2737247943878
,0,-0.05,-0.1,-0.3,0.95,-0.95,1.64,1.28,3.48,-11.54,24.06,0,0,0,2.12,-0.37,9.56,19.2887806892395
,0,-0.06,-0.08,-0.29,0.95,-1.82,2.12,1.32,4.34,-6.45,14.92,0,0,0,1.78,-0.61,9.62,19.3062591552734
,0,-0.05,-0.06,-0.3,0.95,-0.19,1.64,0.23,0.78,-9.8,-0.64,0,0,0,1.63,-0.63,9.64,19.3236739635468
,0,-0.05,-0.04,-0.3,0.95,0.33,3.25,-0.26,-3.3,4.25,20.73,0,0,0,1.06,-0.6,9.72,19.3383028507233
,0,-0.04,-0.02,-0.3,0.95,0.52,2.72,-0.33,-4.14,3.56,19,0,0,0,0.65,-0.53,9.77,19.356351852417
,0,-0.03,-0.02,-0.3,0.95,-0.05,0.98,0.01,2.98,-5.29,11.95,0,0,0,0.56,-0.54,9.77,19.3741328716278
,0,-0.03,-0.01,-0.3,0.95,0.52,0.72,-0.12,-0.66,3.7,10.29,0,0,0,0.44,-0.49,9.78,19.3886256217957
,0,-0.03,-0.01,-0.3,0.95,0.16,0.34,0,3.7,0.92,9.45,0,0,0,0.34,-0.46,9.78,19.4059934616089
,0,-0.03,-0.01,-0.3,0.95,0.14,0.6,0.03,2.14,0.64,10,0,0,0,0.28,-0.44,9.79,19.4241101741791
,0,-0.03,-0,-0.3,0.95,-0.04,0.3,0.01,0.44,-0.31,10,0,0,0,0.23,-0.43,9.79,19.4386258125305
,0,-0.03,-0,-0.3,0.95,-0.04,-0.03,-0.05,0.49,0.65,10.19,0,0,0,0.22,-0.44,9.79,19.4568948745728
,0,-0.03,-0,-0.3,0.95,-0.03,0.04,-0.1,0.71,-0.43,9.91,0,0,0,0.22,-0.44,9.79,19.4735727310181
,0,-0.03,-0,-0.3,0.95,-0.01,-0.06,-0.16,0.38,0.47,9.64,0,0,0,0.24,-0.44,9.79,19.4883365631104
,0,-0.03,-0.01,-0.3,0.95,-0.04,-0.02,-0.16,0.93,0.32,9.93,0,0,0,0.24,-0.45,9.79,19.5069191455841
,0,-0.03,-0.01,-0.31,0.95,-0.04,-0.05,-0.14,0.53,0.14,10.05,0,0,0,0.25,-0.46,9.79,19.5241458415985
,0,-0.03,-0,-0.31,0.95,-0.01,0.03,-0.07,0.21,0.56,10.13,0,0,0,0.25,-0.46,9.79,19.5388450622559
,0,-0.03,-0.01,-0.31,0.95,0.01,-0.01,-0.05,0.06,0.48,10.14,0,0,0,0.25,-0.45,9.79,19.5571870803833
,0,-0.03,-0.01,-0.31,0.95,0.06,-0.1,0.05,0.21,0.45,10.05,0,0,0,0.26,-0.45,9.79,19.5746376514435
,0,-0.03,-0.01,-0.31,0.95,0.07,-0.11,0.05,0.82,0.21,9.21,0,0,0,0.28,-0.43,9.79,19.5893807411194
,0,-0.03,-0.01,-0.31,0.95,0.06,-0.02,0.01,0.51,0.66,9.71,0,0,0,0.28,-0.43,9.79,19.6074497699738
,0,-0.03,-0.01,-0.31,0.95,0.02,0.04,-0.07,0.95,0.08,9.87,0,0,0,0.27,-0.42,9.79,19.6246569156647
,0,-0.03,-0.01,-0.31,0.95,0.01,0,-0.07,1.41,0.29,9.77,0,0,0,0.27,-0.42,9.79,19.6395642757416
,0,-0.02,-0.01,-0.31,0.95,0.03,0,-0.06,1.33,0.31,9.76,0,0,0,0.27,-0.42,9.79,19.6582860946655
,0,-0.02,-0.01,-0.31,0.95,0.01,0.06,-0.03,1.3,0.28,9.67,0,0,0,0.26,-0.42,9.79,19.6754002571106
,0,-0.02,-0.01,-0.31,0.95,0.02,0.07,-0.03,0.78,0.36,9.55,0,0,0,0.27,-0.39,9.79,19.6895470619202
,0,-0.02,-0.01,-0.31,0.95,0.02,0.07,-0.02,0.38,0.29,10.06,0,0,0,0.26,-0.39,9.79,19.7084374427795
,0,-0.02,-0.01,-0.31,0.95,0.01,0.05,-0.02,0.07,0.32,9.97,0,0,0,0.25,-0.39,9.79,19.7259378433228
,0,-0.02,-0.01,-0.31,0.95,0.01,0.02,-0.02,-0.13,0.35,9.77,0,0,0,0.25,-0.39,9.79,19.7406735420227
,0,-0.02,-0.01,-0.31,0.95,0.01,0.06,-0.02,0.53,0.34,9.77,0,0,0,0.24,-0.39,9.79,19.7587423324585
,0,-0.02,-0.01,-0.31,0.95,-0.01,0.02,-0.03,0.83,0.18,9.73,0,0,0,0.24,-0.39,9.79,19.7773733139038
,0,-0.02,-0.01,-0.31,0.95,0.03,0.01,0,0.63,0.32,9.85,0,0,0,0.24,-0.39,9.79,19.7910263538361
,0,-0.02,-0.01,-0.31,0.95,0.01,0.01,-0.01,1.05,0.25,9.62,0,0,0,0.24,-0.39,9.79,19.8098468780518
,0,-0.02,-0.01,-0.31,0.95,0.01,-0.03,-0.02,1.71,0.23,9.58,0,0,0,0.25,-0.38,9.79,19.8264107704163
,0,-0.02,-0.01,-0.31,0.95,0.01,0.01,-0.02,1.12,0.2,9.72,0,0,0,0.24,-0.38,9.79,19.8412382602692
,0,-0.02,-0.01,-0.31,0.95,0,0.01,-0.03,0.63,0.16,9.83,0,0,0,0.24,-0.38,9.79,19.8598330020905
,0,-0.02,-0.01,-0.31,0.95,0.05,0.01,-0.01,1.23,0.11,9.35,0,0,0,0.24,-0.37,9.79,19.8762793540955
,0,-0.02,-0.01,-0.31,0.95,0.05,0.03,-0.02,0.55,0.36,9.73,0,0,0,0.24,-0.36,9.79,19.8915109634399
,0,-0.02,-0.01,-0.31,0.95,0.02,0.04,-0.03,0.79,0.52,9.62,0,0,0,0.23,-0.36,9.79,19.9099183082581
,0,-0.02,-0.01,-0.31,0.95,0.02,0.04,-0.06,0.52,0.37,9.45,0,0,0,0.22,-0.35,9.79,19.9266812801361
,0,-0.02,-0.01,-0.31,0.95,0.03,0.08,-0.06,0.46,0.42,9.71,0,0,0,0.22,-0.35,9.79,19.9413764476776
,0,-0.02,-0,-0.31,0.95,0.03,0.07,-0.06,1.2,0.19,9.43,0,0,0,0.2,-0.33,9.79,19.9605166912079
,0,-0.02,-0,-0.31,0.95,0.11,0.2,-0.11,1.51,-0.07,9.82,0,0,0,0.15,-0.32,9.8,19.976984500885
,0,-0.02,-0,-0.31,0.95,0.07,0.4,-0.04,-0.57,0.06,9.28,0,0,0,0.11,-0.31,9.8,19.9917695522308
,0,-0.01,0,-0.31,0.95,0.23,0.42,0.01,0.83,0.24,10.43,0,0,0,0.02,-0.27,9.8,20.0105588436127
,0,-0.01,0.01,-0.31,0.95,0.05,0.49,0.03,0.34,1.09,8.3,0,0,0,-0.07,-0.27,9.8,20.0269577503204
,0,-0.01,0.01,-0.31,0.95,-0.02,0.7,0.18,1.69,0.71,11.17,0,0,0,-0.14,-0.27,9.8,20.0417966842651
,0,-0.01,0.02,-0.31,0.95,0.1,0.78,0.2,0.94,1.26,9.26,0,0,0,-0.29,-0.24,9.79,20.060658454895
,0,-0,0.03,-0.31,0.95,0.14,1.03,0.09,0.77,-0.01,10.31,0,0,0,-0.5,-0.22,9.79,20.0770227909088
,0,-0,0.03,-0.31,0.95,0.14,1.2,0.29,0.34,0.31,9.72,0,0,0,-0.61,-0.2,9.78,20.0917227268219
,0,0.01,0.05,-0.3,0.95,0.14,1.37,0.39,0.44,-0.12,9.32,0,0,0,-0.89,-0.16,9.76,20.1104502677917
,0,0.01,0.06,-0.3,0.95,0.19,1.77,0.31,0.79,-1.16,9.31,0,0,0,-1.25,-0.15,9.72,20.1272506713867
,0,0.02,0.07,-0.3,0.95,0.23,2.28,0.11,0.93,0.92,9.65,0,0,0,-1.47,-0.13,9.69,20.1422109603882
,0,0.02,0.09,-0.3,0.95,0.23,2.28,0.11,7.12,-2.46,11.04,0,0,0,-1.89,-0.1,9.62,20.1606423854828
,0,0.03,0.13,-0.3,0.95,-0.18,2.8,0.16,4.84,-0.37,10.42,0,0,0,-2.53,-0.08,9.47,20.1772441864014
,0,0.05,0.15,-0.3,0.94,0.78,4.91,-0.47,2.25,-1.41,11.2,0,0,0,-2.97,-0.02,9.34,20.1922907829285
,0,0.08,0.19,-0.3,0.93,0.78,4.91,-0.47,2.99,2.62,12.7,0,0,0,-4,0.2,8.95,20.2114806175232
,0,0.12,0.26,-0.31,0.91,2.42,7.66,-1.03,3.68,4.56,9.73,0,0,0,-5.36,0.55,8.18,20.2278039455414
,0,0.14,0.29,-0.31,0.89,2.25,8.3,-0.73,2.83,-1.53,10.78,0,0,0,-6,0.69,7.71,20.2426884174347
,0,0.16,0.34,-0.32,0.87,2.25,8.3,-0.73,-11.89,1.72,32.9,0,0,0,-6.84,0.63,6.99,20.2616441249847
,0,0.15,0.34,-0.34,0.86,-0.99,0.25,-3.11,-14.58,4.74,23.28,0,0,0,-6.79,0.25,7.06,20.2784004211426
,0,0.14,0.34,-0.34,0.87,-0.87,-2.24,-0.76,6.06,-1.78,11.08,0,0,0,-6.64,0.14,7.21,20.2931885719299
,0,0.13,0.33,-0.35,0.87,-0.69,-1.86,-1.24,2.59,1.53,7.39,0,0,0,-6.41,-0.08,7.41,20.3112933635712
,0,0.12,0.31,-0.36,0.87,-0.31,-1.76,-0.81,4.54,3.04,6.35,0,0,0,-6.14,-0.2,7.63,20.3281419277191
,0,0.11,0.3,-0.36,0.88,-0.21,-2.16,-0.32,3.34,2.91,9.34,0,0,0,-5.98,-0.23,7.76,20.3435389995575
,0,0.1,0.28,-0.36,0.88,-0.17,-2.5,-0.08,1.94,2.33,10.37,0,0,0,-5.57,-0.25,8.06,20.3618383407593
,0,0.09,0.25,-0.36,0.89,-0.14,-3.27,0.28,1.37,1.11,8.93,0,0,0,-5.03,-0.24,8.41,20.3777966499329
,0,0.08,0.24,-0.36,0.9,-0.11,-3.65,0.38,-0.09,-0.13,8.21,0,0,0,-4.73,-0.23,8.58,20.3928236961365
,0,0.07,0.2,-0.36,0.91,-0.07,-3.77,0.34,-1.21,-0.52,8.98,0,0,0,-4.09,-0.22,8.9,20.4115586280823
,0,0.05,0.17,-0.36,0.92,-0.07,-3.87,0.17,-1.62,-0.67,9.55,0,0,0,-3.41,-0.22,9.19,20.4287180900574
,0,0.05,0.15,-0.36,0.92,-0.12,-3.92,0.01,-2.21,-0.72,10.35,0,0,0,-3.06,-0.23,9.31,20.4441239833832
,0,0.03,0.12,-0.36,0.92,-0.12,-3.9,-0.05,-2.33,0.59,10.71,0,0,0,-2.35,-0.26,9.51,20.4621727466583
,0,0.02,0.08,-0.36,0.93,-0.11,-3.75,0,-2.3,1.03,11.04,0,0,0,-1.66,-0.27,9.65,20.478363275528
,0,0.01,0.07,-0.36,0.93,-0.06,-3.61,0.21,-2.01,1.53,11.12,0,0,0,-1.33,-0.28,9.71,20.4934060573578
,0,-0,0.04,-0.36,0.93,-0.05,-3.47,0.32,-2.08,1.27,12.91,0,0,0,-0.69,-0.28,9.77,20.5118687152863
,0,-0.01,0.01,-0.36,0.93,-0.05,-3.23,0.43,-2.22,1.68,14.78,0,0,0,-0.07,-0.29,9.8,20.5288653373718
,0,-0.02,-0.01,-0.35,0.94,-0.16,-3.5,0.71,-4.42,4.87,16.39,0,0,0,0.25,-0.3,9.79,20.5442154407501
,0,-0.03,-0.04,-0.34,0.94,-0.21,-3.56,0.93,-6.22,5.2,14.49,0,0,0,0.92,-0.36,9.75,20.562531709671
,0,-0.05,-0.07,-0.33,0.94,-0.12,-3.47,1.31,-7.87,4.38,12.76,0,0,0,1.54,-0.4,9.67,20.5787236690521
,0,-0.05,-0.08,-0.32,0.94,0.08,-3.01,1.44,-10.1,3.32,11.22,0,0,0,1.82,-0.42,9.62,20.59419465065
,0,-0.06,-0.1,-0.31,0.94,0.17,-2.68,1.42,-13.24,2.15,6.16,0,0,0,2.26,-0.44,9.53,20.6125710010529
,0,-0.06,-0.11,-0.3,0.95,0.01,-1.51,1.2,-14.46,0.41,6.96,0,0,0,2.47,-0.48,9.47,20.6291337013245
,0,-0.06,-0.11,-0.29,0.95,0.1,-0.26,0.78,-16.87,-0.17,6.07,0,0,0,2.49,-0.49,9.47,20.6437890529633
,0,-0.06,-0.11,-0.29,0.95,0.19,0.26,0.55,-18.14,1.08,6.41,0,0,0,2.4,-0.48,9.49,20.6620934009552
,0,-0.06,-0.1,-0.29,0.95,0.1,0.92,0.31,-18.44,1.74,7.53,0,0,0,2.21,-0.5,9.54,20.679004907608
,0,-0.07,-0.09,-0.28,0.95,-1.94,1.2,1.72,0.13,-10.6,10.11,0,0,0,2.09,-0.71,9.55,20.6941285133362
,0,-0.07,-0.08,-0.27,0.96,-0.98,0.89,0.93,2.53,-5.57,5.01,0,0,0,1.86,-0.81,9.59,20.7124588489532
,0,-0.06,-0.06,-0.28,0.96,-0.01,2.18,-0.16,2.96,-5.34,5.8,0,0,0,1.38,-0.78,9.67,20.7289462089539
,0,-0.05,-0.04,-0.28,0.96,0.51,2.78,-0.62,-2.77,2.78,21.64,0,0,0,1.12,-0.72,9.71,20.7441916465759
,0,-0.05,-0.04,-0.28,0.96,0.22,1.6,-0.31,2.41,-2.94,11.8,0,0,0,0.94,-0.7,9.73,20.7626378536224
,0,-0.04,-0.03,-0.29,0.96,0.3,0.39,-0.13,2.2,-3.79,14.06,0,0,0,0.86,-0.63,9.74,20.7796721458435
,0,-0.04,-0.03,-0.28,0.96,0.29,0.24,0.06,1.57,1.18,10.15,0,0,0,0.83,-0.6,9.75,20.7941553592682
,0,-0.04,-0.03,-0.28,0.96,0.36,0.47,0.1,0,0.98,11.16,0,0,0,0.75,-0.54,9.76,20.8127269744873
,0,-0.03,-0.03,-0.28,0.96,0.33,0.21,0.08,0.75,1.02,9.84,0,0,0,0.71,-0.48,9.76,20.8297085762024
,0,-0.03,-0.03,-0.28,0.96,0.14,0.21,0.05,0,0.96,10.69,0,0,0,0.69,-0.46,9.77,20.8447875976562
,0,-0.03,-0.03,-0.28,0.96,0.06,0.05,0.04,0.36,0.93,10.2,0,0,0,0.67,-0.46,9.77,20.8626124858856
,0,-0.03,-0.03,-0.28,0.96,-0.07,0.06,-0.04,0.23,0.81,9.91,0,0,0,0.66,-0.48,9.77,20.8797123432159
,0,-0.03,-0.03,-0.28,0.96,-0.13,-0.09,-0.12,0.7,0.05,9.78,0,0,0,0.67,-0.49,9.77,20.8945734500885
,0,-0.04,-0.03,-0.29,0.96,-0.12,-0.13,-0.15,1.46,-0.36,9.62,0,0,0,0.7,-0.51,9.76,20.9128019809723
,0,-0.04,-0.03,-0.29,0.96,-0.1,-0.05,-0.13,0.86,-0.1,9.71,0,0,0,0.71,-0.52,9.76,20.9297485351562
,0,-0.04,-0.03,-0.29,0.96,-0.05,-0.03,-0.1,1.53,0.3,9.78,0,0,0,0.72,-0.53,9.76,20.9442381858826
,0,-0.04,-0.03,-0.29,0.96,-0.03,0.06,-0.05,0.74,0.28,9.58,0,0,0,0.71,-0.53,9.76,20.9627687931061
,0,-0.04,-0.03,-0.29,0.96,-0.01,0.03,-0.02,0.71,0.42,10.18,0,0,0,0.7,-0.53,9.76,20.9796969890594
,0,-0.04,-0.03,-0.29,0.96,0.03,-0.01,0,0.12,0.63,9.98,0,0,0,0.7,-0.53,9.76,20.9942240715027
,0,-0.04,-0.03,-0.29,0.96,0.02,-0.07,0.02,0.69,0.15,9.74,0,0,0,0.71,-0.53,9.76,21.0126757621765
,0,-0.04,-0.03,-0.29,0.96,-0.01,-0,-0.05,0.87,0.31,10.05,0,0,0,0.71,-0.53,9.76,21.0294599533081
,0,-0.04,-0.03,-0.29,0.96,-0.03,-0.04,-0.11,0.56,0.36,10.02,0,0,0,0.72,-0.53,9.76,21.0442950725555
,0,-0.04,-0.03,-0.29,0.96,-0.02,-0.11,-0.12,0.65,0.2,9.77,0,0,0,0.74,-0.53,9.76,21.0628695487976
,0,-0.04,-0.03,-0.29,0.96,-0.01,0.07,-0.03,0.86,0.26,9.64,0,0,0,0.72,-0.53,9.76,21.0796689987183
,0,-0.04,-0.03,-0.29,0.96,-0,0.04,-0.01,1.12,0.21,9.48,0,0,0,0.72,-0.53,9.76,21.094829082489
,0,-0.04,-0.03,-0.29,0.96,0.02,0.04,0.01,0.94,0.11,9.64,0,0,0,0.71,-0.53,9.76,21.1127827167511
,0,-0.04,-0.03,-0.29,0.96,-0,0.06,-0.03,0.29,0.33,9.78,0,0,0,0.71,-0.53,9.76,21.1297047138214
,0,-0.04,-0.03,-0.29,0.96,-0.01,0.02,-0.03,0.51,0.14,9.73,0,0,0,0.7,-0.53,9.76,21.1449983119965
,0,-0.04,-0.03,-0.29,0.96,-0,0.02,-0.03,0.63,0.29,9.78,0,0,0,0.7,-0.53,9.76,21.1632227897644
,0,-0.04,-0.03,-0.29,0.96,0.01,0.03,-0.02,0.56,0.3,9.68,0,0,0,0.69,-0.51,9.76,21.1806633472443
,0,-0.04,-0.03,-0.29,0.96,0.03,-0.02,-0.02,1.18,0.28,9.84,0,0,0,0.69,-0.5,9.76,21.1954336166382
,0,-0.03,-0.03,-0.29,0.96,0.03,-0.02,-0.02,1.41,0.41,9.51,0,0,0,0.7,-0.5,9.76,21.2128391265869
,0,-0.03,-0.03,-0.29,0.96,0.02,0.02,-0.02,1.28,0.17,9.6,0,0,0,0.69,-0.5,9.76,21.2302803993225
,0,-0.03,-0.03,-0.29,0.96,-0,0.02,-0.03,1.25,0.2,9.82,0,0,0,0.69,-0.5,9.76,21.2450141906738
,0,-0.03,-0.03,-0.29,0.96,0.01,0.02,-0.02,1.23,0.21,9.66,0,0,0,0.7,-0.47,9.76,21.2628712654114
,0,-0.03,-0.03,-0.29,0.96,0.03,0.03,-0.02,1.08,0.31,9.64,0,0,0,0.71,-0.43,9.77,21.2799611091614
,0,-0.03,-0.03,-0.29,0.96,0.04,0.05,-0.04,0.5,0.12,9.59,0,0,0,0.71,-0.42,9.77,21.2951788902283
,0,-0.03,-0.03,-0.29,0.96,0.06,0.02,-0.06,0.86,0.27,9.65,0,0,0,0.7,-0.41,9.77,21.3137729167938
,0,-0.03,-0.03,-0.29,0.96,0.02,0.08,-0.05,0.47,0.33,9.58,0,0,0,0.69,-0.41,9.77,21.3307604789734
,0,-0.03,-0.03,-0.29,0.96,0.1,0.07,-0.03,0.49,0.22,9.7,0,0,0,0.68,-0.4,9.77,21.3454463481903
,0,-0.03,-0.03,-0.29,0.96,0.08,0.03,-0.07,1.55,0.05,9.47,0,0,0,0.66,-0.38,9.77,21.3632082939148
,0,-0.03,-0.02,-0.29,0.95,0.09,0.27,-0.07,0.77,0.38,10.15,0,0,0,0.6,-0.37,9.78,21.3807706832886
,0,-0.03,-0.02,-0.29,0.96,0.18,0.42,0,0.44,0.12,10.1,0,0,0,0.57,-0.35,9.78,21.3956236839294
,0,-0.02,-0.02,-0.29,0.96,0.09,0.4,0,-0.05,0.66,8.76,0,0,0,0.49,-0.34,9.78,21.4140458106995
,0,-0.02,-0.01,-0.29,0.96,0.06,0.61,0.06,2.31,1.14,10.49,0,0,0,0.37,-0.34,9.79,21.4308791160583
,0,-0.02,-0.01,-0.29,0.96,0.08,0.65,0.06,1.01,0.97,10.07,0,0,0,0.31,-0.33,9.79,21.4454090595245
,0,-0.02,-0,-0.29,0.96,0.14,0.8,0.13,1.66,1.19,9.78,0,0,0,0.14,-0.3,9.8,21.4635608196259
,0,-0.01,0.01,-0.29,0.96,0.1,1,0.07,1.22,0,9.95,0,0,0,-0.06,-0.28,9.8,21.4813961982727
,0,-0.01,0.01,-0.29,0.96,0.05,1.42,0.13,0.29,0.53,9.45,0,0,0,-0.19,-0.28,9.8,21.4960246086121
,0,-0,0.03,-0.29,0.96,0.04,1.67,0.18,-0.41,-0.02,11.14,0,0,0,-0.52,-0.25,9.78,21.5136363506317
,0,0,0.05,-0.29,0.96,0.34,1.89,0.29,-0.77,-0.28,10.08,0,0,0,-0.9,-0.22,9.76,21.530914068222
,0,0,0.06,-0.28,0.96,-0.26,2.29,0.58,1.5,0.34,14,0,0,0,-1.12,-0.24,9.73,21.5460057258606
