Header,TimeStamp,QuatX,QuatY,QuatZ,QuatW,GyroX,GyroY,GyroZ,AccelX,AccelY,AccelZ,EulerX,EulerY,EulerZ,GravityX,GravityY,GravityZ,TimeStampGlob
,0,0,-0.2,-0.29,0.94,0.42,-0.14,-0.26,-18.65,3.52,3.61,0,0,0,3.65,1.14,9.02,0.770507574081421
,0,-0,-0.19,-0.29,0.94,-0.65,1.04,0.18,-10.59,5.88,5.8,0,0,0,3.51,1.07,9.09,0.785029172897339
,0,-0.02,-0.18,-0.29,0.94,-1.8,0.38,0.95,11.97,-0.19,-8.28,0,0,0,3.5,0.71,9.13,0.801325798034668
,0,-0.02,-0.16,-0.29,0.94,-1.4,1.12,0.32,4.58,-7.98,-10.4,0,0,0,3.4,0.57,9.17,0.820866823196411
,0,-0.02,-0.14,-0.29,0.95,-0.12,4.49,0.23,-2.66,-9.56,24.09,0,0,0,2.71,0.45,9.41,0.835423707962036
,0,-0.01,-0.11,-0.3,0.95,0.38,3.97,-0.33,1.61,0.93,13.96,0,0,0,2.1,0.54,9.56,0.851446628570557
,0,0.01,-0.09,-0.3,0.95,0.45,2.18,-1.21,3.11,5.25,12.44,0,0,0,1.89,0.6,9.6,0.870381116867065
,0,0.01,-0.08,-0.3,0.95,0.46,2.23,-0.11,-0.37,-0.28,15.72,0,0,0,1.48,0.71,9.66,0.885078191757202
,0,0.02,-0.07,-0.3,0.95,0.31,1.81,-0.05,-4.64,2.11,16.09,0,0,0,1.17,0.75,9.7,0.90133261680603
,0,0.02,-0.06,-0.3,0.95,-0.58,0.19,0.19,3.88,1.3,10.09,0,0,0,1.15,0.69,9.71,0.920568943023682
,0,0.02,-0.06,-0.3,0.95,-0.19,1.25,0.1,-2.53,2.79,14,0,0,0,0.98,0.64,9.73,0.934899806976318
,0,0.01,-0.05,-0.3,0.95,-0.37,0.51,0.05,0.43,0.52,10.66,0,0,0,0.94,0.57,9.74,0.951576709747314
,0,0.01,-0.05,-0.3,0.95,-0.27,0.28,0.05,-1.38,0.96,12,0,0,0,0.91,0.54,9.74,0.970634937286377
,0,0.01,-0.05,-0.3,0.95,-0.25,-0.13,-0.06,1.22,0.01,10.15,0,0,0,0.9,0.49,9.75,0.985544204711914
,0,0.01,-0.05,-0.3,0.95,-0.17,-0.05,-0.12,-0.3,0.29,10.64,0,0,0,0.9,0.47,9.75,1.00142049789429
,0,0.01,-0.05,-0.3,0.95,-0.14,-0.08,-0.15,0.93,0.07,10.5,0,0,0,0.91,0.45,9.75,1.02091455459595
,0,0.01,-0.05,-0.3,0.95,-0.07,0.02,-0.03,0.66,0.9,9.83,0,0,0,0.93,0.44,9.75,1.03552293777466
,0,0.01,-0.05,-0.3,0.95,-0.08,0.07,-0.01,1.44,0.53,10,0,0,0,0.91,0.42,9.75,1.05207419395447
,0,0.01,-0.05,-0.3,0.95,-0.1,0.07,-0.04,1.89,0.35,9.13,0,0,0,0.91,0.41,9.75,1.07116627693176
,0,0.01,-0.05,-0.3,0.95,-0.05,0.13,-0.02,1.67,0.26,9.58,0,0,0,0.88,0.4,9.75,1.08562207221985
,0,0.01,-0.05,-0.3,0.95,-0.07,0.13,-0.03,1.09,0.47,9.77,0,0,0,0.86,0.39,9.76,1.10143852233887
,0,0.01,-0.05,-0.3,0.95,-0.04,0.12,-0,0.99,0.38,9.62,0,0,0,0.85,0.38,9.76,1.12061405181885
,0,0.01,-0.05,-0.3,0.95,-0.06,0.11,-0,1.11,0.53,9.47,0,0,0,0.83,0.37,9.76,1.13523292541504
,0,0.01,-0.04,-0.3,0.95,-0.05,0.16,0,0.66,0.25,9.9,0,0,0,0.8,0.36,9.76,1.15156054496765
,0,0.01,-0.04,-0.3,0.95,-0.04,0.17,-0,0.57,0.2,9.79,0,0,0,0.79,0.36,9.76,1.17103576660156
,0,0.01,-0.04,-0.3,0.95,-0.01,0.14,-0,0.08,0.42,9.87,0,0,0,0.76,0.36,9.77,1.18563580513
,0,0.01,-0.04,-0.3,0.95,0,0.11,-0,0.66,0.42,9.75,0,0,0,0.74,0.36,9.77,1.20177459716797
,0,0.01,-0.04,-0.3,0.95,0.02,0.04,0.02,0.97,0.37,9.71,0,0,0,0.74,0.36,9.77,1.2210750579834
,0,0.01,-0.04,-0.3,0.95,-0.01,0.06,-0.02,0.82,0.44,9.52,0,0,0,0.73,0.36,9.77,1.23562288284302
,0,0.01,-0.04,-0.3,0.95,0,0.05,-0.01,1.26,0.64,9.87,0,0,0,0.72,0.36,9.77,1.25177431106567
,0,0.01,-0.04,-0.3,0.95,0.03,0.05,-0.01,1.44,0.43,9.86,0,0,0,0.71,0.36,9.77,1.27114367485046
,0,0.01,-0.04,-0.3,0.95,0.09,0.09,-0.01,1.21,0.26,9.89,0,0,0,0.7,0.37,9.77,1.28569316864014
,0,0.01,-0.04,-0.3,0.95,0.02,0.07,-0.02,0.9,0.35,9.64,0,0,0,0.69,0.38,9.77,1.30200862884521
,0,0.01,-0.04,-0.3,0.95,0.07,0.07,-0.02,0.33,0.63,9.64,0,0,0,0.68,0.39,9.77,1.32136511802673
,0,0.01,-0.04,-0.3,0.95,0.14,0.1,0.02,0.26,0.33,9.78,0,0,0,0.66,0.41,9.77,1.33624529838562
,0,0.01,-0.04,-0.3,0.95,0.19,0.09,0.04,0.5,0.21,9.57,0,0,0,0.65,0.45,9.77,1.35240793228149
,0,0.01,-0.04,-0.3,0.95,0.12,0.11,0.03,0.15,0.21,9.86,0,0,0,0.64,0.46,9.77,1.37124586105347
,0,0.01,-0.04,-0.3,0.95,0.19,0.13,0.05,0.66,0.83,9.59,0,0,0,0.61,0.49,9.77,1.38584804534912
,0,0.02,-0.04,-0.3,0.95,0.2,0.18,0.08,1.05,0.3,9.78,0,0,0,0.58,0.52,9.77,1.40232825279236
,0,0.02,-0.04,-0.3,0.95,0.15,0.31,0.07,0.8,0.18,9.66,0,0,0,0.55,0.54,9.77,1.421311378479
,0,0.02,-0.03,-0.3,0.95,-0.03,0.39,0.08,0.72,0.62,10.37,0,0,0,0.48,0.54,9.77,1.43574094772339
,0,0.02,-0.03,-0.3,0.95,-0.04,0.39,0.13,0.22,0.42,10.16,0,0,0,0.4,0.54,9.78,1.45211505889893
,0,0.02,-0.03,-0.3,0.95,0.13,0.48,0.2,-0.42,0.83,8.35,0,0,0,0.36,0.55,9.78,1.47142577171326
,0,0.02,-0.02,-0.3,0.95,0.16,0.67,0.18,1.14,-0.04,11.53,0,0,0,0.25,0.57,9.78,1.48640131950378
,0,0.03,-0.01,-0.29,0.96,0.12,0.88,0.29,0.35,1.42,7.63,0,0,0,0.1,0.58,9.78,1.50308132171631
,0,0.03,-0.01,-0.29,0.96,-0.01,0.68,0.23,0.55,0.64,11.68,0,0,0,0.04,0.58,9.78,1.52135396003723
,0,0.03,-0,-0.29,0.96,0.12,0.95,0.56,2.39,1,9.44,0,0,0,-0.14,0.59,9.78,1.53593587875366
,0,0.04,0.01,-0.28,0.96,0.06,0.91,0.41,2.6,0.51,10.1,0,0,0,-0.34,0.61,9.78,1.55250477790833
,0,0.04,0.02,-0.28,0.96,0.33,1.66,0.17,0.89,0.12,10.1,0,0,0,-0.5,0.64,9.77,1.57162880897522
,0,0.05,0.03,-0.28,0.96,0.39,2.09,0.47,2.4,0.1,9.64,0,0,0,-0.87,0.72,9.74,1.58601498603821
,0,0.06,0.05,-0.27,0.96,0.65,1.82,0.34,1.47,0.01,8.87,0,0,0,-1.24,0.84,9.69,1.60259509086609
,0,0.06,0.06,-0.27,0.96,0.07,2.49,0.22,4.18,-0.58,10.88,0,0,0,-1.47,0.85,9.65,1.62143707275391
,0,0.08,0.1,-0.27,0.95,0.84,4.6,-0.36,0.51,-1.52,11.69,0,0,0,-2.23,0.96,9.49,1.63723731040955
,0,0.11,0.14,-0.27,0.95,1.25,4.94,-0.33,3.28,0.2,13.71,0,0,0,-3.2,1.22,9.18,1.65304064750671
,0,0.15,0.2,-0.28,0.93,2.36,6.8,-0.79,7.6,1.47,11.62,0,0,0,-3.81,1.4,8.92,1.671715259552
,0,0.17,0.24,-0.28,0.91,2.32,9.1,-0.99,2.62,0.91,6.95,0,0,0,-5.23,1.72,8.1,1.68672490119934
,0,0.21,0.32,-0.28,0.88,2.32,9.1,-0.99,1.32,-6.09,30.6,0,0,0,-6.6,1.87,7,1.70352482795715
,0,0.22,0.34,-0.29,0.87,2.31,5.44,-3.1,-14,7.42,37.84,0,0,0,-7.02,1.81,6.6,1.72191619873047
,0,0.21,0.34,-0.31,0.86,-1.15,-2.03,-0.66,12.13,0.16,10.85,0,0,0,-7.06,1.45,6.64,1.73648262023926
,0,0.19,0.33,-0.32,0.87,-1.15,-2.03,-0.66,9.9,3.47,5.43,0,0,0,-6.83,1.2,6.93,1.75308227539062
,0,0.18,0.33,-0.32,0.87,-0.96,-1.58,-0.82,5.57,4.26,9.87,0,0,0,-6.73,1.08,7.04,1.77215194702148
,0,0.17,0.31,-0.32,0.88,-0.66,-2.73,-0.06,4.5,3.7,9.05,0,0,0,-6.4,0.93,7.36,1.78655123710632
,0,0.15,0.29,-0.33,0.89,-0.66,-2.73,-0.06,3.92,2.98,8.31,0,0,0,-5.98,0.85,7.71,1.80295038223267
,0,0.15,0.27,-0.33,0.89,-0.39,-3.22,0.38,2.23,1.77,7.86,0,0,0,-5.74,0.84,7.9,1.82197785377502
,0,0.14,0.24,-0.33,0.9,-0.13,-3.71,0.66,0.92,1.39,9.4,0,0,0,-5.17,0.87,8.28,1.83664751052856
,0,0.12,0.21,-0.32,0.91,-0.13,-3.71,0.66,-0.29,1.02,9.6,0,0,0,-4.52,0.91,8.64,1.85298347473145
,0,0.12,0.19,-0.32,0.92,-0.21,-4.11,0.67,-1.02,0.35,9.5,0,0,0,-4.17,0.92,8.82,1.87236928939819
,0,0.1,0.15,-0.32,0.93,-0.18,-4.2,0.43,-2.31,-0.74,12.33,0,0,0,-3.44,0.92,9.13,1.88694405555725
,0,0.09,0.11,-0.32,0.93,-0.18,-4.2,0.43,-2.74,-0.25,12.88,0,0,0,-2.65,0.91,9.39,1.90405654907227
,0,0.08,0.09,-0.33,0.94,-0.17,-4.46,0.13,-2.65,0.87,12.42,0,0,0,-2.25,0.9,9.5,1.92239284515381
,0,0.07,0.05,-0.33,0.94,-0.22,-4.34,0.15,-2.45,1.66,12.23,0,0,0,-1.43,0.86,9.66,1.93692874908447
,0,0.05,0.02,-0.33,0.94,-0.2,-4.24,0.2,-2.23,2.12,12.36,0,0,0,-0.64,0.83,9.74,1.95376944541931
,0,0.04,-0.02,-0.33,0.94,-0.24,-3.93,0.36,-2.8,3.12,12.79,0,0,0,-0.27,0.81,9.76,1.97304940223694
,0,0.03,-0.03,-0.32,0.95,-0.21,-3.56,0.54,-3.36,3.74,12.54,0,0,0,0.42,0.77,9.76,1.98747396469116
,0,0.02,-0.06,-0.32,0.95,-0.18,-3.29,0.66,-3.82,4.05,12.93,0,0,0,1.02,0.72,9.72,2.00423383712769
,0,0.01,-0.09,-0.31,0.95,-0.27,-2.76,0.95,-6.98,4.16,15.1,0,0,0,1.29,0.68,9.69,2.02254700660706
,0,0,-0.1,-0.3,0.95,-0.14,-2.64,1.02,-10.86,3.23,19.73,0,0,0,1.79,0.61,9.62,2.0373637676239
,0,-0.01,-0.13,-0.29,0.95,0.08,-3.01,1.06,-15.15,2.77,17.13,0,0,0,2.38,0.6,9.49,2.05451369285583
,0,-0.01,-0.15,-0.28,0.95,0.4,-2.79,1.19,-15.39,3.22,7.41,0,0,0,2.64,0.61,9.42,2.07309246063232
,0,-0.01,-0.15,-0.28,0.95,0.71,-0.91,0.94,-18.68,-1.07,2.27,0,0,0,2.92,0.67,9.33,2.08800959587097
,0,-0,-0.15,-0.27,0.95,0.85,0.04,0.65,-19.06,0.07,2.2,0,0,0,2.84,0.78,9.35,2.10520720481873
,0,0.01,-0.13,-0.26,0.96,0.64,1.62,0.7,-23.81,1.61,0.83,0,0,0,2.7,0.82,9.38,2.12299823760986
,0,0,-0.12,-0.26,0.96,-1.54,2.2,0.68,-4.26,-6.44,12.17,0,0,0,2.28,0.63,9.51,2.13740944862366
,0,-0,-0.11,-0.26,0.96,-1.26,1.48,0.51,4.33,-3.65,25.06,0,0,0,2.04,0.47,9.57,2.15525364875793
,0,0,-0.08,-0.26,0.96,-0.04,2.24,-0.18,4.06,-3.55,-1.09,0,0,0,1.83,0.47,9.62,2.17450952529907
,0,0.01,-0.06,-0.27,0.96,0.74,3.81,-1.38,-2.39,-4.11,24.82,0,0,0,1.15,0.59,9.72,2.18849086761475
,0,0.02,-0.05,-0.28,0.96,0.46,2.33,-1.68,-5.73,-1.62,23.35,0,0,0,0.83,0.69,9.74,2.20567178726196
,0,0.02,-0.05,-0.28,0.96,0.15,0.44,-0.19,2.53,1.65,15.71,0,0,0,0.79,0.71,9.74,2.22313189506531
,0,0.02,-0.04,-0.28,0.96,-0.22,0.38,0.13,2.46,0.66,9.9,0,0,0,0.71,0.67,9.75,2.23790621757507
,0,0.02,-0.04,-0.28,0.96,-0.01,0.74,0.25,0.91,-0.09,11.94,0,0,0,0.59,0.67,9.76,2.25568723678589
,0,0.02,-0.04,-0.27,0.96,-0.09,0.16,0.4,0.25,2.23,10.85,0,0,0,0.58,0.66,9.76,2.27345085144043
,0,0.02,-0.04,-0.27,0.96,-0.2,0.15,0.14,1.14,0.85,9.97,0,0,0,0.56,0.63,9.77,2.28774237632751
,0,0.02,-0.03,-0.27,0.96,-0.22,0.15,0.09,0.66,0.76,9.3,0,0,0,0.53,0.59,9.77,2.30559659004211
,0,0.02,-0.03,-0.27,0.96,-0.2,0.04,-0.03,0.11,0.15,10.03,0,0,0,0.53,0.57,9.77,2.32360243797302
,0,0.02,-0.03,-0.27,0.96,-0.11,-0.17,-0.08,0.18,0.15,10.39,0,0,0,0.55,0.54,9.77,2.33827519416809
,0,0.02,-0.04,-0.27,0.96,-0.15,-0.2,-0.14,0.65,0.62,9.9,0,0,0,0.58,0.51,9.77,2.35640144348145
,0,0.02,-0.04,-0.28,0.96,-0.18,-0.02,-0.17,0,0.28,10.19,0,0,0,0.58,0.49,9.77,2.3739902973175
,0,0.02,-0.04,-0.28,0.96,-0.06,0.01,-0.06,1.05,0.89,9.91,0,0,0,0.59,0.47,9.77,2.38860893249512
,0,0.02,-0.03,-0.28,0.96,-0,0.14,0.02,0.3,0.79,10.05,0,0,0,0.56,0.47,9.77,2.40573930740356
,0,0.02,-0.03,-0.28,0.96,0.06,0.05,0.11,0.81,0.39,9.92,0,0,0,0.56,0.48,9.77,2.42385101318359
,0,0.02,-0.03,-0.28,0.96,-0.01,0.1,0.02,0.92,0.45,10.01,0,0,0,0.54,0.48,9.77,2.43823432922363
,0,0.02,-0.03,-0.28,0.96,-0.04,0.11,-0.02,0.48,0.22,10.11,0,0,0,0.53,0.48,9.78,2.45423936843872
,0,0.02,-0.03,-0.28,0.96,-0,0.01,0.01,1.52,0.14,9.55,0,0,0,0.53,0.48,9.78,2.47337651252747
,0,0.02,-0.03,-0.28,0.96,-0.03,0.07,-0.02,1.12,0.25,9.52,0,0,0,0.52,0.47,9.78,2.48766827583313
,0,0.02,-0.03,-0.28,0.96,-0.03,0.09,-0.02,0.95,0.52,9.76,0,0,0,0.5,0.47,9.78,2.50548696517944
,0,0.02,-0.03,-0.28,0.96,-0.02,0.11,-0.02,0.44,0.47,10.24,0,0,0,0.49,0.47,9.78,2.52335953712463
,0,0.02,-0.03,-0.28,0.96,0.06,0.03,0.03,0.33,0.53,9.93,0,0,0,0.48,0.48,9.78,2.53806662559509
,0,0.02,-0.03,-0.28,0.96,0.04,0.02,0.03,1.38,0.46,9.45,0,0,0,0.47,0.48,9.78,2.556232213974
,0,0.02,-0.03,-0.28,0.96,-0.04,0.11,-0.02,0.2,0.61,9.87,0,0,0,0.46,0.47,9.78,2.57461476325989
,0,0.02,-0.03,-0.28,0.96,0.02,0.08,-0,1,0.38,9.94,0,0,0,0.45,0.48,9.78,2.58909702301025
,0,0.02,-0.03,-0.28,0.96,0.03,0.08,-0.01,1.09,0.45,9.64,0,0,0,0.44,0.48,9.78,2.60730814933777
,0,0.02,-0.03,-0.28,0.96,0.08,0.12,-0.01,0.57,0.43,9.88,0,0,0,0.42,0.49,9.78,2.6251277923584
,0,0.02,-0.03,-0.28,0.96,0.15,0.11,-0,0.69,0.46,9.74,0,0,0,0.41,0.51,9.78,2.63990712165833
,0,0.02,-0.03,-0.28,0.96,0.13,0.12,-0.03,0.75,0.18,9.85,0,0,0,0.39,0.54,9.78,2.65829014778137
,0,0.02,-0.03,-0.28,0.96,0.13,0.11,-0.05,0.82,0.14,9.67,0,0,0,0.37,0.56,9.78,2.67666697502136
,0,0.02,-0.03,-0.28,0.96,0.12,0.18,-0.08,0.72,0.12,9.5,0,0,0,0.35,0.57,9.78,2.69174122810364
,0,0.02,-0.02,-0.28,0.96,0.08,0.24,-0.09,0.78,0.67,9.93,0,0,0,0.31,0.58,9.78,2.71008229255676
,0,0.03,-0.02,-0.28,0.96,-0.01,0.28,-0.07,0.89,0.62,9.6,0,0,0,0.25,0.58,9.78,2.72857642173767
,0,0.03,-0.02,-0.28,0.96,-0.11,0.39,0.01,-0.07,0.12,10.55,0,0,0,0.21,0.57,9.78,2.74394941329956
,0,0.03,-0.02,-0.28,0.96,0.07,0.45,0.07,0.7,0.67,9.65,0,0,0,0.13,0.58,9.78,2.76199293136597
,0,0.03,-0.01,-0.28,0.96,0.05,0.46,0.13,-0.91,0.59,9.94,0,0,0,0.05,0.6,9.78,2.78034901618958
,0,0.03,-0.01,-0.27,0.96,0.36,0.46,0.3,-0.35,0.43,9.78,0,0,0,-0.04,0.68,9.78,2.79575061798096
,0,0.04,-0,-0.27,0.96,0.24,0.7,0.34,0.46,-0.05,8.83,0,0,0,-0.1,0.7,9.78,2.81357550621033
,0,0.04,0,-0.27,0.96,-0.08,0.67,0.12,0.78,1.75,7.99,0,0,0,-0.24,0.7,9.77,2.83074712753296
,0,0.04,0.01,-0.26,0.96,-0.02,0.89,0.34,0.96,2.32,8.82,0,0,0,-0.42,0.7,9.77,2.84602975845337
,0,0.04,0.02,-0.26,0.96,0.16,0.96,0.42,1.02,0.92,9.36,0,0,0,-0.51,0.72,9.76,2.86394143104553
,0,0.05,0.03,-0.26,0.96,0.16,1.41,0.33,1.32,0.27,10.73,0,0,0,-0.74,0.75,9.74,2.88162422180176
,0,0.05,0.04,-0.26,0.96,0.18,1.48,0.22,0.51,0.06,11.18,0,0,0,-1.04,0.79,9.71,2.89693307876587
,0,0.06,0.05,-0.25,0.97,0.08,1.65,0.9,-1.7,-0.73,12.21,0,0,0,-1.18,0.81,9.7,2.91492581367493
,0,0.06,0.06,-0.24,0.97,-0.38,1.89,1.06,1.81,2.81,7.52,0,0,0,-1.5,0.83,9.65,2.93173575401306
,0,0.07,0.09,-0.24,0.96,0.15,2.42,0.26,4.09,-1.04,10.54,0,0,0,-2.06,0.89,9.54,2.94705986976624
,0,0.09,0.13,-0.24,0.96,0.86,4.43,-0.26,1.39,-0.46,11.2,0,0,0,-2.47,0.96,9.43,2.96659564971924
,0,0.11,0.16,-0.24,0.95,1.97,5.86,-0.42,2.58,0.01,12.14,0,0,0,-3.47,1.25,9.08,2.9829261302948
,0,0.15,0.22,-0.25,0.93,2.65,6.85,-0.87,4.92,1.94,11.11,0,0,0,-4.78,1.67,8.39,2.99791693687439
,0,0.2,0.29,-0.25,0.9,3.56,8.73,-0.96,1.72,-1.61,6.85,0,0,0,-5.48,1.9,7.9,3.01695704460144
,0,0.22,0.33,-0.26,0.88,2.65,9.17,-2.37,-5.78,0.47,18.38,0,0,0,-6.85,2.09,6.69,3.03325581550598
,0,0.24,0.38,-0.28,0.85,1.8,3.52,-3.43,-14.54,10.33,35.11,0,0,0,-7.62,1.91,5.85,3.04863166809082
,0,0.22,0.38,-0.29,0.85,-0.57,0.05,-3.44,-12.37,11.02,22.17,0,0,0,-7.69,1.62,5.86,3.06791472434998
,0,0.21,0.37,-0.3,0.85,-1.31,-2.37,-0.69,9.24,1.19,10.15,0,0,0,-7.46,1.33,6.22,3.0836718082428
,0,0.19,0.36,-0.3,0.86,-1.17,-2.04,-0.82,4.15,1.61,7.04,0,0,0,-7.22,1.06,6.54,3.09889435768127
,0,0.17,0.34,-0.31,0.87,-0.9,-2.34,-0.76,4.96,2.19,6.65,0,0,0,-7.07,0.95,6.71,3.11772227287292
,0,0.17,0.33,-0.31,0.87,-0.49,-2.72,-0.39,3.85,3.6,8.22,0,0,0,-6.73,0.81,7.07,3.13354802131653
,0,0.15,0.31,-0.32,0.88,-0.27,-3.29,0.18,2.8,2.96,9.72,0,0,0,-6.29,0.77,7.47,3.14900994300842
,0,0.14,0.27,-0.32,0.9,-0.18,-3.62,0.42,1.71,2.47,10.17,0,0,0,-6.02,0.78,7.69,3.16933631896973
,0,0.14,0.26,-0.32,0.9,-0.02,-4.21,0.63,-0.27,0.73,9.85,0,0,0,-5.38,0.84,8.14,3.18447089195251
,0,0.13,0.22,-0.32,0.91,0.04,-4.61,0.63,-1.43,0.16,9.86,0,0,0,-4.64,0.91,8.58,3.19910049438477
,0,0.11,0.17,-0.32,0.93,-0.01,-4.69,0.56,-2.45,-0.17,10.07,0,0,0,-4.24,0.93,8.79,3.21905469894409
,0,0.1,0.15,-0.32,0.93,-0.13,-4.69,0.35,-3.03,-0.78,10.57,0,0,0,-3.41,0.94,9.14,3.23461985588074
,0,0.09,0.11,-0.32,0.94,-0.2,-4.62,0.11,-3.62,0.2,13.06,0,0,0,-2.58,0.92,9.41,3.25000166893005
,0,0.07,0.07,-0.33,0.94,-0.25,-4.64,0.05,-3.3,0.47,12.9,0,0,0,-2.16,0.9,9.52,3.26879382133484
,0,0.06,0.05,-0.33,0.94,-0.21,-4.52,0.07,-2.74,1.94,13.08,0,0,0,-1.31,0.86,9.68,3.28443908691406
,0,0.05,0.01,-0.33,0.94,-0.17,-4.23,0.25,-2.95,2.97,13.37,0,0,0,-0.49,0.83,9.75,3.29996776580811
,0,0.03,-0.02,-0.32,0.95,-0.26,-4.03,0.38,-3.19,3.43,13.59,0,0,0,-0.11,0.8,9.77,3.31938910484314
,0,0.03,-0.04,-0.32,0.95,-0.46,-3.58,0.5,-4.97,3.14,14.56,0,0,0,0.59,0.72,9.76,3.33484196662903
,0,0.01,-0.07,-0.32,0.95,-0.38,-3.13,0.5,-6.61,3.85,13.7,0,0,0,1.21,0.63,9.71,3.35040974617004
,0,0,-0.09,-0.31,0.94,-0.25,-2.8,0.5,-8.73,4.32,14.65,0,0,0,1.71,0.58,9.63,3.37024450302124
,0,-0,-0.1,-0.31,0.94,-0.05,-2.23,0.45,-12.92,4.44,15.57,0,0,0,1.92,0.57,9.59,3.38486886024475
,0,-0.01,-0.12,-0.31,0.94,0.66,-2.24,0.4,-15.75,1.89,9.81,0,0,0,2.34,0.64,9.5,3.40102171897888
,0,-0,-0.14,-0.3,0.94,1.04,-2.02,0.38,-16.19,1.31,7.3,0,0,0,2.68,0.83,9.39,3.42084050178528
,0,0,-0.15,-0.3,0.94,1.33,-1.05,0.29,-16.5,1.36,5.59,0,0,0,2.77,0.95,9.35,3.43563866615295
,0,0.01,-0.15,-0.3,0.94,0.62,0.42,0.6,-16.93,2.53,2.89,0,0,0,2.78,1.07,9.34,3.4514844417572
,0,0.01,-0.14,-0.29,0.95,0.17,1.14,0.78,-19.04,2.69,3.83,0,0,0,2.48,0.93,9.44,3.47045183181763
,0,0,-0.12,-0.28,0.95,-2.35,2.74,1.35,-3.46,-11.21,21.68,0,0,0,2.24,0.68,9.52,3.48561549186707
,0,-0.01,-0.11,-0.28,0.95,-0.35,0.69,0.47,6.7,-10.51,9.48,0,0,0,2.09,0.46,9.56,3.50180792808533
,0,0,-0.08,-0.28,0.96,-0.06,2.21,-0.15,1.31,-11.04,4.93,0,0,0,1.54,0.5,9.67,3.52090358734131
,0,0.01,-0.07,-0.29,0.96,0.57,3.33,-1.93,-2.85,0.44,23.78,0,0,0,1.21,0.58,9.71,3.53568768501282
,0,0.02,-0.05,-0.3,0.95,0.09,1.07,-0.73,1.56,1.4,15.23,0,0,0,0.88,0.65,9.74,3.55200505256653
,0,0.02,-0.05,-0.3,0.95,-0.41,0.43,-0.13,1.85,1.89,16.01,0,0,0,0.8,0.58,9.75,3.57204604148865
,0,0.02,-0.04,-0.3,0.95,-0.25,0.52,0.27,2.69,3.02,7.62,0,0,0,0.75,0.55,9.76,3.58648824691772
,0,0.02,-0.04,-0.3,0.95,-0.21,0.73,0.24,-0.94,2.77,10.8,0,0,0,0.59,0.51,9.77,3.60319113731384
,0,0.01,-0.03,-0.29,0.96,-0.36,0.27,0.55,0.42,-0.03,10.19,0,0,0,0.57,0.44,9.77,3.62248587608337
,0,0.01,-0.03,-0.29,0.96,-0.28,0.03,0.12,1.14,0.13,9.39,0,0,0,0.56,0.42,9.78,3.63684606552124
,0,0.01,-0.03,-0.29,0.96,-0.25,0.26,0.01,-0.91,0.25,10.77,0,0,0,0.52,0.37,9.78,3.6534686088562
,0,0.01,-0.03,-0.29,0.96,-0.17,-0.01,0.05,0.89,-0.44,10.68,0,0,0,0.53,0.34,9.78,3.6722412109375
,0,0.01,-0.03,-0.29,0.96,-0.03,0.05,-0.04,0.22,-0.06,10.33,0,0,0,0.52,0.34,9.78,3.68905830383301
,0,0.01,-0.03,-0.29,0.96,-0.01,-0.02,0.02,0.84,0.14,10.12,0,0,0,0.52,0.34,9.78,3.70350432395935
,0,0.01,-0.03,-0.29,0.96,-0,0.06,0.02,0.87,0.78,9.5,0,0,0,0.5,0.34,9.78,3.72211456298828
,0,0.01,-0.03,-0.29,0.96,0.02,0.1,-0,0.87,0.89,10.13,0,0,0,0.49,0.35,9.78,3.73685431480408
,0,0.01,-0.03,-0.29,0.96,0.01,0.16,-0.04,1.11,0.5,9.72,0,0,0,0.47,0.35,9.78,3.75339436531067
,0,0.01,-0.03,-0.29,0.96,0.03,0.15,-0.04,1.19,0.2,10.08,0,0,0,0.44,0.36,9.78,3.77253341674805
,0,0.01,-0.03,-0.29,0.96,0.06,0.08,-0.01,0.73,-0.2,9.98,0,0,0,0.43,0.36,9.78,3.786785364151
,0,0.01,-0.03,-0.29,0.96,0.09,0.07,-0.03,0.79,0.47,9.89,0,0,0,0.42,0.38,9.78,3.80294132232666
,0,0.01,-0.03,-0.29,0.96,0.07,0.12,-0.04,0.28,0.36,9.54,0,0,0,0.4,0.39,9.79,3.82222986221313
,0,0.01,-0.03,-0.29,0.96,0.04,0.12,-0.04,0.01,0.66,9.7,0,0,0,0.39,0.4,9.79,3.83680772781372
,0,0.01,-0.02,-0.29,0.96,0.08,0.07,0,0.13,0.45,9.75,0,0,0,0.37,0.41,9.79,3.85303568840027
,0,0.02,-0.02,-0.29,0.96,0.07,0.05,-0,0.37,0.35,9.63,0,0,0,0.36,0.42,9.79,3.87202668190002
,0,0.02,-0.02,-0.29,0.96,0.08,0.01,-0,0.37,0.55,9.61,0,0,0,0.36,0.43,9.79,3.88680362701416
,0,0.02,-0.02,-0.29,0.96,0.02,-0,-0.02,1.13,0.26,9.71,0,0,0,0.36,0.44,9.78,3.90292644500732
,0,0.02,-0.02,-0.29,0.96,0.04,0.01,-0.03,0.95,0.27,9.53,0,0,0,0.36,0.45,9.78,3.92247891426086
,0,0.02,-0.02,-0.29,0.96,0.08,0.01,-0.03,1.08,0.54,9.66,0,0,0,0.36,0.45,9.78,3.93721675872803
,0,0.02,-0.02,-0.29,0.96,0.05,0.01,-0.01,0.46,-0.03,9.89,0,0,0,0.36,0.47,9.78,3.9532299041748
,0,0.02,-0.03,-0.29,0.96,0.09,-0.03,0.02,0.33,0.28,9.38,0,0,0,0.36,0.48,9.78,3.97212195396423
,0,0.02,-0.03,-0.29,0.96,-0.01,-0.03,0.02,0.57,0.55,10.03,0,0,0,0.37,0.48,9.78,3.98887419700623
,0,0.02,-0.03,-0.29,0.96,0.04,0.02,0.01,0.7,1.15,9.97,0,0,0,0.37,0.48,9.78,4.00712943077087
,0,0.02,-0.03,-0.29,0.96,0.05,0.05,0.02,0.24,0.59,10.03,0,0,0,0.36,0.49,9.78,4.02400541305542
,0,0.02,-0.03,-0.29,0.96,0.1,0.04,0.01,0.31,0.85,9.63,0,0,0,0.35,0.5,9.78,4.03887534141541
,0,0.02,-0.02,-0.29,0.96,0.18,0.09,0.06,0.54,0.38,9.65,0,0,0,0.34,0.53,9.78,4.05598211288452
,0,0.02,-0.02,-0.29,0.96,0.15,0.14,0.04,0.91,0.26,9.89,0,0,0,0.31,0.55,9.78,4.0729238986969
,0,0.02,-0.02,-0.29,0.96,0.07,0.18,0,0.85,0.27,9.82,0,0,0,0.3,0.56,9.78,4.08782696723938
,0,0.02,-0.02,-0.29,0.96,0.02,0.34,0,1.32,0.3,9.98,0,0,0,0.24,0.57,9.78,4.1039080619812
,0,0.03,-0.02,-0.29,0.96,-0.05,0.39,-0,0.6,0.5,9.81,0,0,0,0.16,0.57,9.78,4.1231837272644
,0,0.03,-0.01,-0.29,0.96,0.1,0.47,0.05,-0.47,0.62,8.53,0,0,0,0.12,0.58,9.78,4.13749837875366
,0,0.03,-0.01,-0.29,0.96,0.24,0.75,0.14,0.14,0.29,11.85,0,0,0,0,0.62,9.78,4.1532986164093
,0,0.03,-0,-0.29,0.96,0,0.55,0.03,0.79,0.74,10.23,0,0,0,-0.11,0.62,9.78,4.17294383049011
,0,0.03,0,-0.29,0.96,0.04,0.89,0.4,0.73,0.27,11.19,0,0,0,-0.19,0.63,9.78,4.18768405914307
,0,0.04,0.01,-0.28,0.96,0.04,0.93,0.46,1.21,1.26,9.42,0,0,0,-0.36,0.64,9.77,4.20303058624268
,0,0.04,0.02,-0.28,0.96,0.09,1.24,0.47,1.39,0.66,10.53,0,0,0,-0.6,0.67,9.76,4.22251319885254
,0,0.05,0.03,-0.28,0.96,0.33,1.64,0.34,0.39,0.12,9.91,0,0,0,-0.76,0.7,9.75,4.23723459243774
,0,0.05,0.04,-0.27,0.96,0.45,1.92,0.26,-0.33,1.2,12.29,0,0,0,-1.09,0.78,9.71,4.25290441513062
,0,0.07,0.06,-0.27,0.96,0.86,2.01,0.14,1.38,0.22,8.59,0,0,0,-1.28,0.86,9.68,4.2726628780365
,0,0.07,0.07,-0.27,0.96,0.21,2.73,0.38,6.95,-0.32,9.39,0,0,0,-1.73,0.94,9.6,4.28746676445007
,0,0.09,0.11,-0.26,0.95,1.35,4.64,-0.39,2.76,-2.84,12.48,0,0,0,-2.53,1.11,9.4,4.30315160751343
,0,0.12,0.16,-0.27,0.94,2.14,5.33,-0.61,3.23,0.58,11.75,0,0,0,-3.55,1.47,9.02,4.32297897338867
,0,0.15,0.18,-0.27,0.93,2.92,6.82,-0.94,7.38,1.75,11.48,0,0,0,-4.15,1.68,8.72,4.33785915374756
,0,0.19,0.25,-0.27,0.91,2.81,8.4,-0.58,0.46,-0.33,7.61,0,0,0,-5.48,2.08,7.85,4.35340547561646
,0,0.23,0.32,-0.28,0.88,2.42,8.3,-1.18,5.8,-1.17,25.5,0,0,0,-6.68,2.21,6.82,4.3727707862854
,0,0.24,0.33,-0.29,0.87,1.76,3.96,-2.93,-11.62,7.35,38.2,0,0,0,-7,2.13,6.52,4.38755583763123
,0,0.22,0.34,-0.3,0.86,-1.34,-1.52,-1.28,12.16,-0.06,9.18,0,0,0,-7.02,1.71,6.62,4.40304589271545
,0,0.2,0.33,-0.31,0.87,-1.2,-1.7,-1.04,8.46,1.74,6.47,0,0,0,-6.93,1.57,6.75,4.42298102378845
,0,0.19,0.33,-0.31,0.87,-1.05,-1.71,-1.06,6.11,2.33,7.65,0,0,0,-6.76,1.28,6.98,4.4380145072937
,0,0.18,0.31,-0.32,0.88,-0.84,-1.86,-0.92,4.76,4.45,9.56,0,0,0,-6.5,1.07,7.25,4.45337891578674
,0,0.16,0.29,-0.33,0.88,-0.56,-2.46,-0.39,4.63,4.62,9.19,0,0,0,-6.33,1.01,7.41,4.47323608398438
,0,0.16,0.28,-0.33,0.89,-0.42,-3.04,0.19,2.91,3.21,8.86,0,0,0,-5.9,0.95,7.76,4.48790264129639
,0,0.15,0.25,-0.33,0.9,-0.33,-3.28,0.4,1.53,1.87,9.48,0,0,0,-5.37,0.96,8.14,4.50361847877502
,0,0.13,0.22,-0.33,0.91,-0.16,-3.71,0.61,0.91,1.51,10.07,0,0,0,-5.07,0.97,8.33,4.52342653274536
,0,0.13,0.2,-0.33,0.91,-0.27,-4.12,0.57,-0.88,0,10.45,0,0,0,-4.4,0.99,8.7,4.53796172142029
,0,0.11,0.16,-0.33,0.92,-0.33,-4.25,0.45,-1.65,-0.86,10.4,0,0,0,-3.66,0.96,9.04,4.55328106880188
,0,0.09,0.12,-0.33,0.93,-0.31,-4.32,0.09,-2.13,-0.32,11.26,0,0,0,-3.28,0.94,9.19,4.57317185401917
,0,0.09,0.11,-0.33,0.93,-0.28,-4.3,-0.2,-2.16,0.42,12.03,0,0,0,-2.5,0.88,9.44,4.58783912658691
,0,0.07,0.07,-0.34,0.94,-0.25,-4.28,-0.27,-2.04,2.35,12.29,0,0,0,-1.72,0.83,9.61,4.60360884666443
,0,0.06,0.03,-0.34,0.94,-0.17,-4.12,-0.19,-1.81,2.84,12.15,0,0,0,-1.33,0.81,9.68,4.62336707115173
,0,0.05,0.02,-0.34,0.94,-0.15,-3.76,0.01,-2.7,3.36,16.51,0,0,0,-0.61,0.78,9.75,4.63822293281555
,0,0.04,-0.02,-0.34,0.94,-0.04,-3.73,0.09,-3.72,5.73,15.83,0,0,0,0.1,0.78,9.77,4.65405416488647
,0,0.02,-0.05,-0.34,0.94,0.02,-3.81,0.47,-3.98,6.29,14.42,0,0,0,0.46,0.78,9.76,4.6737494468689
,0,0.02,-0.07,-0.34,0.94,-0.2,-3.33,0.89,-6.71,4.73,13.44,0,0,0,1.13,0.74,9.71,4.6881058216095
,0,0,-0.09,-0.33,0.94,-0.29,-3.03,0.97,-9.56,2.78,15.46,0,0,0,1.69,0.67,9.63,4.70401358604431
,0,-0,-0.12,-0.32,0.94,-0.04,-2.61,0.85,-12.98,2.94,15.03,0,0,0,1.93,0.65,9.59,4.72360515594482
,0,-0.01,-0.13,-0.32,0.94,0.39,-2.42,0.79,-15.4,1.93,13,0,0,0,2.4,0.66,9.48,4.73816132545471
,0,-0.01,-0.15,-0.31,0.94,0.75,-2.28,0.75,-16.06,2.59,6.21,0,0,0,2.82,0.78,9.35,4.75442123413086
,0,-0,-0.16,-0.3,0.94,1.07,-1.57,0.97,-16.63,2,3.25,0,0,0,2.97,0.85,9.3,4.77372550964355
,0,0,-0.16,-0.29,0.94,0.86,0.51,1.09,-19.12,0.33,0.47,0,0,0,2.99,0.94,9.28,4.78831768035889
,0,0.01,-0.14,-0.28,0.95,0.7,1.46,1.09,-23.04,1.23,-17.42,0,0,0,2.65,0.92,9.39,4.80409598350525
,0,-0.01,-0.12,-0.27,0.95,-2.13,2.21,1.37,-2.88,-10.92,17.82,0,0,0,2.46,0.69,9.46,4.82371258735657
,0,-0.01,-0.12,-0.27,0.96,-0.86,0.76,0.61,3.21,-7.01,-4.58,0,0,0,2.28,0.42,9.52,4.8386664390564
,0,-0.01,-0.09,-0.27,0.96,-0.51,2.02,0.03,6.01,-5.7,22.97,0,0,0,1.81,0.34,9.63,4.85457396507263
,0,0,-0.07,-0.29,0.95,0.09,3.33,-1.48,-2.44,-4.28,25.5,0,0,0,1.5,0.37,9.68,4.87401342391968
,0,0.01,-0.06,-0.29,0.95,0.29,1.33,-1.02,3.72,2.33,14.62,0,0,0,1.15,0.47,9.72,4.88791275024414
,0,0.01,-0.05,-0.29,0.95,0.23,1.45,-0.17,1.01,-1.45,18.12,0,0,0,0.9,0.48,9.75,4.90349626541138
,0,0.01,-0.05,-0.29,0.96,-0.19,0.75,0.09,0.05,0.53,7.41,0,0,0,0.83,0.46,9.75,4.92346096038818
,0,0.01,-0.04,-0.29,0.96,0.04,0.88,0.29,-0.45,0.98,14.48,0,0,0,0.71,0.46,9.76,4.93791484832764
,0,0.01,-0.04,-0.29,0.96,0.03,0.41,0.19,1.32,0.58,10.01,0,0,0,0.67,0.46,9.77,4.95330309867859
,0,0.01,-0.04,-0.28,0.96,0.01,0.11,0.62,0.86,0.25,9.89,0,0,0,0.66,0.45,9.77,4.97353792190552
,0,0.01,-0.04,-0.28,0.96,-0.09,0.11,0.02,0.43,0.32,10.45,0,0,0,0.64,0.44,9.77,4.98846650123596
,0,0.01,-0.04,-0.28,0.96,-0.07,0.13,-0.09,0.54,-0.15,9.9,0,0,0,0.62,0.43,9.77,5.003986120224
,0,0.01,-0.04,-0.28,0.96,-0.1,-0.06,-0.18,0.84,0.24,10.12,0,0,0,0.63,0.42,9.77,5.02403092384338
,0,0.01,-0.04,-0.29,0.96,-0.09,-0.04,-0.16,1.01,0.17,10.28,0,0,0,0.64,0.4,9.77,5.03844118118286
,0,0.01,-0.04,-0.29,0.96,-0,0.01,-0.02,0.83,0,10.66,0,0,0,0.63,0.41,9.77,5.05481219291687
,0,0.01,-0.04,-0.29,0.96,0.06,0.03,0.03,1.18,0.54,10.4,0,0,0,0.63,0.41,9.77,5.07402634620667
,0,0.01,-0.04,-0.29,0.96,0.04,0.1,0,0.76,0.75,10.22,0,0,0,0.61,0.42,9.77,5.08808064460754
,0,0.01,-0.04,-0.29,0.96,0.08,0.08,0.03,0.39,0.33,9.66,0,0,0,0.6,0.44,9.77,5.1039707660675
,0,0.01,-0.04,-0.29,0.96,0.09,0.02,0.03,1.49,0.48,9.67,0,0,0,0.6,0.44,9.77,5.12377595901489
,0,0.01,-0.04,-0.28,0.96,0.05,0.06,0.01,0.8,0.53,10.04,0,0,0,0.59,0.45,9.77,5.13855719566345
,0,0.01,-0.04,-0.28,0.96,0.02,0.03,0.01,0.87,0.19,9.88,0,0,0,0.58,0.46,9.77,5.1540150642395
,0,0.01,-0.04,-0.28,0.96,0.01,0.04,0.01,0.91,0.32,9.63,0,0,0,0.58,0.46,9.77,5.17396187782288
,0,0.01,-0.04,-0.28,0.96,-0.02,0.06,0,0.32,0.53,9.91,0,0,0,0.57,0.45,9.77,5.188143491745
,0,0.01,-0.03,-0.28,0.96,0.05,0.05,0.04,0.16,0.81,9.77,0,0,0,0.57,0.47,9.77,5.20375800132751
,0,0.02,-0.04,-0.28,0.96,0.1,-0.01,0.02,1.38,0.14,9.77,0,0,0,0.57,0.48,9.77,5.22455835342407
,0,0.02,-0.03,-0.28,0.96,0,0.03,0.01,0.59,0.2,9.74,0,0,0,0.56,0.48,9.77,5.23985195159912
,0,0.02,-0.03,-0.28,0.96,0,-0.01,0.02,1.1,0.45,9.46,0,0,0,0.56,0.48,9.77,5.25472688674927
,0,0.02,-0.03,-0.28,0.96,0.01,0.02,0,0.72,0.71,9.99,0,0,0,0.56,0.48,9.77,5.27448463439941
,0,0.02,-0.03,-0.28,0.96,-0,-0.01,0.02,1.18,0.58,9.77,0,0,0,0.56,0.48,9.77,5.28919100761414
,0,0.02,-0.03,-0.28,0.96,0.05,0.01,0.04,0.88,0.31,9.95,0,0,0,0.56,0.49,9.77,5.30515909194946
,0,0.02,-0.03,-0.28,0.96,0,0.02,0.04,0.67,0.48,9.68,0,0,0,0.56,0.49,9.77,5.32492160797119
,0,0.02,-0.03,-0.28,0.96,0.06,0.02,0.06,0.68,0.32,9.58,0,0,0,0.56,0.5,9.77,5.33927249908447
,0,0.02,-0.03,-0.28,0.96,-0.02,0.06,0,0.52,0.45,9.89,0,0,0,0.55,0.49,9.77,5.35441875457764
,0,0.02,-0.03,-0.28,0.96,0.07,0.04,0.05,0.59,0.77,9.72,0,0,0,0.54,0.5,9.77,5.37491154670715
,0,0.02,-0.03,-0.28,0.96,0.08,0.07,0.05,1.05,0.25,9.81,0,0,0,0.53,0.52,9.77,5.38924980163574
,0,0.02,-0.03,-0.28,0.96,0.07,0.07,0.02,1.05,0.3,9.65,0,0,0,0.51,0.53,9.77,5.40449786186218
,0,0.02,-0.03,-0.28,0.96,0.03,0.11,-0,0.99,0.14,9.75,0,0,0,0.5,0.53,9.77,5.42371463775635
,0,0.02,-0.03,-0.28,0.96,0.05,0.24,-0.03,1.31,0.47,9.51,0,0,0,0.46,0.54,9.78,5.43855786323547
,0,0.02,-0.03,-0.28,0.96,0.06,0.32,0.01,1.26,0.22,10.01,0,0,0,0.4,0.56,9.78,5.45417761802673
,0,0.02,-0.03,-0.28,0.96,0.03,0.42,-0.07,-0.07,0.12,9.7,0,0,0,0.36,0.56,9.78,5.47459936141968
,0,0.02,-0.02,-0.28,0.96,0.01,0.51,0.02,-0.41,0.42,8.54,0,0,0,0.26,0.56,9.78,5.48836469650269
,0,0.03,-0.01,-0.28,0.96,0.14,0.67,0.2,0.6,0.36,11.45,0,0,0,0.13,0.57,9.78,5.50364780426025
,0,0.03,-0.01,-0.28,0.96,0.04,0.57,0.42,-0.38,1.89,9.25,0,0,0,0.08,0.57,9.78,5.52410912513733
,0,0.03,-0.01,-0.27,0.96,0.07,0.82,0.76,1.89,0.39,10.88,0,0,0,-0.04,0.58,9.78,5.53850817680359
,0,0.03,0,-0.27,0.96,0.12,0.8,0.45,2.88,0.38,9.33,0,0,0,-0.11,0.59,9.78,5.55427312850952
,0,0.04,0.01,-0.27,0.96,0.16,1.67,0.47,1.28,0.7,11.6,0,0,0,-0.37,0.62,9.77,5.57388353347778
,0,0.04,0.03,-0.26,0.96,0.42,1.94,0.26,0.59,0.29,9.34,0,0,0,-0.71,0.69,9.75,5.58844351768494
,0,0.05,0.05,-0.26,0.96,0.36,2.13,0.28,0.99,-0.71,9.56,0,0,0,-0.91,0.73,9.73,5.6041202545166
,0,0.06,0.06,-0.26,0.96,0.77,2.38,0.34,3.08,0.45,9.56,0,0,0,-1.36,0.87,9.67,5.62402105331421
,0,0.07,0.09,-0.25,0.96,0.33,4.23,0.29,8.34,-4.05,11.82,0,0,0,-2.02,0.94,9.54,5.63846611976624
,0,0.1,0.14,-0.25,0.95,1.09,5.36,-0.47,2.75,-4.12,11.14,0,0,0,-2.52,1.03,9.42,5.65405488014221
,0,0.11,0.16,-0.25,0.95,2.17,6.6,-0.64,2.77,1.83,13.32,0,0,0,-3.62,1.29,9.02,5.67418909072876
,0,0.16,0.23,-0.25,0.93,2.95,8.46,-0.66,4.63,0.77,5.91,0,0,0,-4.98,1.69,8.27,5.68895244598389
,0,0.2,0.31,-0.25,0.9,2.43,8.64,-0.7,1.34,-1.94,7.81,0,0,0,-5.66,1.84,7.78,5.70452690124512
,0,0.21,0.34,-0.26,0.88,2.53,8.36,-2.7,-1.89,-5.43,35.56,0,0,0,-6.98,1.93,6.6,5.72434306144714
,0,0.22,0.37,-0.29,0.86,-0.13,0.6,-3.83,-5.93,10.04,18.8,0,0,0,-7.41,1.54,6.22,5.73900508880615
,0,0.2,0.36,-0.3,0.86,-1.23,-1.69,-1.21,10.39,-0.2,13.2,0,0,0,-7.32,1.38,6.36,5.75422954559326
,0,0.19,0.35,-0.3,0.86,-1.1,-1.75,-0.99,5.98,2.01,6.98,0,0,0,-7.12,1.1,6.64,5.7740318775177
,0,0.18,0.34,-0.31,0.87,-0.48,-1.98,-0.67,6.1,3.75,8.1,0,0,0,-6.89,0.91,6.91,5.78915405273438
,0,0.17,0.32,-0.32,0.88,-0.24,-2.23,-0.39,5.12,4.39,9.73,0,0,0,-6.74,0.87,7.05,5.80439829826355
,0,0.16,0.31,-0.32,0.88,-0.12,-2.93,0.32,3.12,3.28,10.6,0,0,0,-6.36,0.87,7.4,5.823725938797
,0,0.15,0.28,-0.32,0.89,-0.06,-3.59,0.7,0.8,0.64,10.24,0,0,0,-5.84,0.93,7.82,5.8386127948761
,0,0.14,0.24,-0.32,0.91,0.03,-3.87,0.75,0.04,0.18,10.33,0,0,0,-5.53,0.98,8.03,5.85390996932983
,0,0.14,0.22,-0.32,0.91,0.05,-4.36,0.72,-0.91,0.46,9.98,0,0,0,-4.84,1.06,8.45,5.87408113479614
,0,0.12,0.18,-0.32,0.92,-0.3,-4.48,0.6,-2.48,-1.31,10.36,0,0,0,-4.08,1.08,8.84,5.88879752159119
,0,0.11,0.16,-0.32,0.93,-0.37,-4.49,0.43,-2.98,-1.61,11.15,0,0,0,-3.69,1.07,9.02,5.90373492240906
,0,0.1,0.12,-0.32,0.93,-0.39,-4.51,0.02,-3.1,-0.05,11.93,0,0,0,-2.88,1.01,9.31,5.92336368560791
,0,0.08,0.09,-0.32,0.94,-0.38,-4.39,-0.19,-3.06,0.99,12.46,0,0,0,-2.08,0.93,9.53,5.9382176399231
,0,0.07,0.07,-0.33,0.94,-0.32,-4.35,-0.2,-2.84,1.29,12.36,0,0,0,-1.68,0.89,9.61,5.95401477813721
,0,0.06,0.03,-0.33,0.94,-0.22,-4.04,-0.12,-3.28,2.23,15.77,0,0,0,-0.9,0.84,9.72,5.97169518470764
,0,0.04,-0.01,-0.33,0.94,-0.18,-3.97,-0.05,-4.38,4.44,17.35,0,0,0,-0.15,0.82,9.77,5.98751258850098
,0,0.03,-0.02,-0.33,0.94,-0.13,-4.08,0.3,-5.18,5.71,15.37,0,0,0,0.23,0.8,9.77,6.00234484672546
,0,0.02,-0.06,-0.33,0.94,-0.17,-4.03,0.55,-6.58,5.06,13.14,0,0,0,0.98,0.76,9.72,6.01840472221375
,0,0.01,-0.09,-0.32,0.94,-0.21,-3.56,0.9,-7.52,4.23,12.41,0,0,0,1.63,0.71,9.64,6.03655433654785
,0,0,-0.1,-0.32,0.94,0.14,-2.83,0.92,-10.66,3.99,11.04,0,0,0,1.9,0.7,9.59,6.05189895629883
,0,-0,-0.13,-0.31,0.94,0.2,-2.4,0.89,-14.24,0.81,15.87,0,0,0,2.33,0.72,9.49,6.06775164604187
,0,-0,-0.15,-0.3,0.94,0.59,-1.88,0.61,-16.64,-0.51,15.29,0,0,0,2.5,0.76,9.45,6.08649659156799
,0,-0,-0.16,-0.3,0.94,0.97,-1.88,0.48,-15.85,-0.67,6.83,0,0,0,2.87,0.9,9.33,6.1013548374176
,0,0.01,-0.17,-0.29,0.94,1.23,-1.21,0.35,-20.42,0.83,2.04,0,0,0,3.02,1.08,9.26,6.11743140220642
,0,0.01,-0.16,-0.29,0.94,0.51,0.33,0.27,-24.73,0.76,1.07,0,0,0,2.99,1.12,9.27,6.13695669174194
,0,0.01,-0.15,-0.29,0.94,-0.86,1.43,0.61,-6.39,-4.43,-2.53,0,0,0,2.8,1.02,9.34,6.15119528770447
,0,-0.01,-0.14,-0.28,0.95,-2.22,1.63,1.11,5.06,-1.57,15.01,0,0,0,2.57,0.59,9.44,6.16744899749756
,0,-0.01,-0.12,-0.28,0.95,-1.18,0.82,0.26,6.32,-0.35,3.22,0,0,0,2.49,0.48,9.47,6.18680119514465
,0,-0,-0.1,-0.29,0.95,0.28,4.01,-0.41,-6.05,-6.45,26.48,0,0,0,1.93,0.48,9.6,6.20123934745789
,0,0.01,-0.08,-0.3,0.95,0.5,3.52,-1.94,-1.62,-0.82,17.3,0,0,0,1.4,0.63,9.68,6.21745491027832
,0,0.02,-0.07,-0.3,0.95,0.64,1.6,-0.43,1.54,4.8,14.68,0,0,0,1.25,0.69,9.7,6.23605132102966
,0,0.02,-0.06,-0.3,0.95,0.23,1.24,-0.13,1.29,-0.03,17.09,0,0,0,0.98,0.77,9.72,6.25098133087158
,0,0.02,-0.05,-0.3,0.95,0.05,1.01,0.05,-4.34,2.3,20.02,0,0,0,0.88,0.75,9.73,6.26747798919678
,0,0.02,-0.05,-0.3,0.95,-0.13,0.45,0.32,0.05,1.08,12.14,0,0,0,0.84,0.73,9.74,6.28675007820129
,0,0.02,-0.05,-0.3,0.95,-0.01,0.27,0.16,1.7,1.18,9.76,0,0,0,0.77,0.73,9.74,6.30153679847717
,0,0.02,-0.05,-0.3,0.95,-0.06,0.38,0.04,0.27,1.2,9.94,0,0,0,0.7,0.71,9.75,6.3175745010376
,0,0.02,-0.04,-0.3,0.95,-0.18,0.22,0.01,0.58,0.73,10.64,0,0,0,0.68,0.69,9.75,6.33628559112549
,0,0.02,-0.04,-0.3,0.95,-0.13,0.06,-0.07,0.18,0.54,10.75,0,0,0,0.66,0.67,9.76,6.35082268714905
,0,0.02,-0.04,-0.3,0.95,-0.12,0.05,-0.11,0.15,0.36,10.45,0,0,0,0.66,0.65,9.76,6.36809420585632
,0,0.02,-0.04,-0.3,0.95,-0.09,-0.09,-0.13,0.71,0.13,8.58,0,0,0,0.67,0.64,9.76,6.38755488395691
,0,0.02,-0.04,-0.3,0.95,-0.01,0.09,-0.03,0.41,0.74,9.46,0,0,0,0.66,0.63,9.76,6.4011504650116
,0,0.02,-0.04,-0.3,0.95,0.01,0.05,-0.04,1.31,1.07,10.61,0,0,0,0.65,0.63,9.76,6.41752028465271
,0,0.02,-0.04,-0.3,0.95,-0.02,0.17,-0.01,-0.01,0.71,10.34,0,0,0,0.63,0.63,9.76,6.43639135360718
,0,0.02,-0.04,-0.3,0.95,0.01,0.02,0.05,1.6,0.33,9.49,0,0,0,0.62,0.63,9.76,6.45086312294006
,0,0.02,-0.04,-0.3,0.95,-0,0.07,0,0.7,0.59,10.17,0,0,0,0.61,0.63,9.76,6.46732115745544
,0,0.02,-0.04,-0.3,0.95,0.01,0.03,0.02,1.18,0.36,9.81,0,0,0,0.61,0.63,9.76,6.48700952529907
,0,0.02,-0.04,-0.3,0.95,-0.02,0.07,0.01,0.86,0.57,9.91,0,0,0,0.6,0.63,9.76,6.50127983093262
,0,0.02,-0.04,-0.3,0.95,-0.04,0.1,0.01,0.7,0.71,9.54,0,0,0,0.58,0.62,9.76,6.5180995464325
,0,0.02,-0.04,-0.3,0.95,-0.08,0.1,0.01,0.85,0.6,9.2,0,0,0,0.57,0.61,9.76,6.53655505180359
,0,0.02,-0.04,-0.3,0.95,-0.13,0.17,0,0.14,1.04,10.08,0,0,0,0.54,0.59,9.77,6.55179405212402
,0,0.02,-0.03,-0.3,0.95,-0.16,0.1,0.01,0.97,0.68,9.65,0,0,0,0.53,0.56,9.77,6.56795144081116
,0,0.02,-0.03,-0.3,0.95,-0.14,0.14,-0,0.22,0.9,9.79,0,0,0,0.51,0.55,9.77,6.58694911003113
,0,0.02,-0.03,-0.3,0.95,-0.12,0.08,0.01,0.63,0.58,9.67,0,0,0,0.49,0.53,9.77,6.60163927078247
,0,0.02,-0.03,-0.3,0.95,-0.02,0.09,0.03,0.6,1,9.89,0,0,0,0.48,0.53,9.77,6.61850714683533
,0,0.02,-0.03,-0.3,0.95,0.05,0.1,0.06,1.05,0.16,10.19,0,0,0,0.47,0.54,9.78,6.63728880882263
,0,0.02,-0.03,-0.3,0.95,0.06,0.06,0.02,0.91,0.31,9.77,0,0,0,0.46,0.54,9.78,6.65156078338623
,0,0.02,-0.03,-0.3,0.95,0.07,0.05,0.02,1.01,0.37,9.97,0,0,0,0.45,0.55,9.78,6.66882228851318
,0,0.02,-0.03,-0.3,0.95,0.01,0.07,0.01,0.61,0.51,9.82,0,0,0,0.44,0.55,9.78,6.68751049041748
,0,0.02,-0.03,-0.3,0.95,0.1,0.08,0.05,0.92,0.29,9.84,0,0,0,0.43,0.56,9.78,6.70189571380615
,0,0.02,-0.03,-0.3,0.95,0.07,0.08,0.08,0.63,0.19,9.64,0,0,0,0.42,0.57,9.78,6.71886920928955
,0,0.02,-0.03,-0.3,0.95,-0.04,0.12,0.07,0.18,0.34,10.03,0,0,0,0.41,0.56,9.78,6.7373993396759
,0,0.02,-0.03,-0.3,0.95,0.03,0.11,0.16,0.09,0.29,9.85,0,0,0,0.39,0.56,9.78,6.75197887420654
,0,0.02,-0.03,-0.3,0.95,0.04,0.13,0.16,0.6,0.78,9.83,0,0,0,0.36,0.57,9.78,6.76938199996948
,0,0.02,-0.02,-0.29,0.96,0.12,0.33,0.28,0.92,0.39,10.31,0,0,0,0.33,0.58,9.78,6.78744959831238
,0,0.03,-0.02,-0.29,0.96,0.17,0.45,0.1,0.04,0.19,9.66,0,0,0,0.25,0.61,9.78,6.80199456214905
,0,0.03,-0.02,-0.29,0.96,0.16,0.52,0.16,0.74,0.1,9.9,0,0,0,0.15,0.63,9.78,6.81982421875
,0,0.03,-0.01,-0.29,0.96,0.01,0.6,0.28,0.95,0.8,10.23,0,0,0,0.1,0.63,9.78,6.83805751800537
,0,0.03,-0.01,-0.29,0.96,0.07,0.75,0.31,0.9,-0.24,10.01,0,0,0,-0.02,0.64,9.78,6.85239005088806
,0,0.04,0,-0.28,0.96,0.15,0.9,0.47,0.44,-0.52,11.52,0,0,0,-0.19,0.66,9.78,6.86964654922485
,0,0.04,0.01,-0.28,0.96,0.02,0.89,0.1,0.74,1.35,8.57,0,0,0,-0.28,0.66,9.77,6.88764095306396
,0,0.04,0.02,-0.27,0.96,0.11,1.43,0.83,2.3,0.15,12.79,0,0,0,-0.52,0.68,9.76,6.90265703201294
,0,0.05,0.03,-0.27,0.96,0.33,1.32,0.52,0.86,1.28,8.62,0,0,0,-0.77,0.72,9.74,6.92000150680542
,0,0.05,0.04,-0.27,0.96,0.2,1.94,-0.01,-4.63,1.92,13.4,0,0,0,-0.95,0.74,9.73,6.93788552284241
,0,0.06,0.05,-0.26,0.96,0.07,1.43,1.41,1.93,-0.76,12.84,0,0,0,-1.23,0.82,9.69,6.95261335372925
,0,0.07,0.07,-0.25,0.96,0.54,2.06,1.33,6.79,-1.29,10.13,0,0,0,-1.68,0.97,9.61,6.97034311294556
,0,0.1,0.11,-0.25,0.96,1.29,4.42,-0.23,-3.36,0.18,11.89,0,0,0,-2.09,1.09,9.51,6.98815369606018
,0,0.11,0.14,-0.25,0.95,2.37,5.68,-0.26,2.31,-0.56,11.54,0,0,0,-3.09,1.45,9.18,7.00245594978333
,0,0.16,0.19,-0.25,0.93,2.93,6.24,-0.33,3.63,0.04,12.16,0,0,0,-4.28,1.96,8.6,7.02068758010864
,0,0.21,0.26,-0.25,0.91,3.46,8.24,-0.72,2.66,-0.11,6.2,0,0,0,-4.96,2.21,8.16,7.0389986038208
,0,0.24,0.29,-0.25,0.89,3.89,8.51,-0.82,3.95,5.13,22.06,0,0,0,-6.26,2.7,7.04,7.05308794975281
,0,0.27,0.34,-0.26,0.86,3.03,7.18,-1.79,7.78,4.76,31.63,0,0,0,-7.17,2.8,6.06,7.07126140594482
,0,0.27,0.35,-0.27,0.85,1.53,2.39,-1.97,-10.91,8.72,23.91,0,0,0,-7.36,2.75,5.85,7.08885192871094
,0,0.26,0.35,-0.27,0.86,-1.7,-2.25,-0.16,10.02,-0.84,6.06,0,0,0,-7.22,2.56,6.11,7.10371136665344
,0,0.25,0.33,-0.27,0.87,-1.34,-1.87,-0.04,4.17,-0.1,6.75,0,0,0,-6.98,2.38,6.45,7.12227630615234
,0,0.23,0.32,-0.28,0.88,-1.23,-2.31,-0.31,4.92,1.26,6.97,0,0,0,-6.69,2.19,6.81,7.13922953605652
,0,0.22,0.31,-0.28,0.88,-1.22,-2.52,-0.19,3.87,1.84,8.78,0,0,0,-6.53,2.09,7,7.1542956829071
,0,0.2,0.29,-0.28,0.89,-1.16,-2.79,-0.13,1.69,1.81,11.14,0,0,0,-6.12,1.93,7.41,7.1726086139679
,0,0.18,0.26,-0.29,0.9,-0.96,-3.56,-0.01,1.2,1.77,11.19,0,0,0,-5.57,1.79,7.86,7.1893298625946
,0,0.17,0.24,-0.29,0.91,-0.88,-4.2,0.03,-0.75,2.03,8.89,0,0,0,-5.24,1.73,8.1,7.20453572273254
,0,0.15,0.2,-0.3,0.92,-0.89,-4.38,-0.01,-1.34,2.05,8.2,0,0,0,-4.54,1.58,8.54,7.22277069091797
,0,0.13,0.17,-0.3,0.93,-0.81,-4.29,-0.06,-2,2.25,10.07,0,0,0,-3.82,1.45,8.91,7.24002361297607
,0,0.12,0.15,-0.3,0.93,-0.64,-4.23,-0.1,-2.38,3.48,13.33,0,0,0,-3.45,1.39,9.07,7.25465273857117
,0,0.1,0.11,-0.31,0.94,-0.7,-4.13,-0.14,-3,3.55,13.78,0,0,0,-2.7,1.25,9.34,7.2731945514679
,0,0.08,0.07,-0.31,0.94,-0.7,-4.6,-0.07,-3.09,3.69,13.55,0,0,0,-1.85,1.13,9.56,7.28991460800171
,0,0.08,0.05,-0.31,0.95,-0.45,-4.61,0.19,-2.92,3.49,12.38,0,0,0,-1.42,1.09,9.64,7.30472898483276
,0,0.06,0.01,-0.31,0.95,-0.27,-4.5,0.29,-2.99,5.23,13.04,0,0,0,-0.57,1.07,9.73,7.32351350784302
,0,0.05,-0.03,-0.31,0.95,-0.13,-4.09,0.58,-4.6,4.99,13.8,0,0,0,0.19,1.04,9.74,7.3410017490387
,0,0.04,-0.04,-0.31,0.95,-0.24,-3.65,0.81,-6.3,3.4,12.59,0,0,0,0.54,1.01,9.73,7.35508298873901
,0,0.03,-0.07,-0.3,0.95,-0.24,-3.43,0.88,-7.46,3.01,12.33,0,0,0,1.17,0.95,9.68,7.37465405464172
,0,0.02,-0.1,-0.29,0.95,-0.26,-2.81,0.86,-7.91,2.84,12.84,0,0,0,1.68,0.88,9.61,7.3907904624939
,0,0.01,-0.11,-0.29,0.95,-0.21,-2.27,0.72,-12.32,3.26,16.75,0,0,0,1.9,0.85,9.58,7.40571355819702
,0,0,-0.13,-0.28,0.95,-0.22,-2.27,0.7,-13.69,2.9,13.11,0,0,0,2.35,0.78,9.48,7.42442870140076
,0,-0,-0.15,-0.28,0.95,-0.03,-2.3,0.5,-15.95,2.06,8.15,0,0,0,2.75,0.78,9.37,7.44156551361084
,0,-0,-0.15,-0.28,0.95,0.45,-1.47,0.28,-16.9,2.15,2.41,0,0,0,2.88,0.82,9.33,7.45630383491516
,0,0,-0.16,-0.28,0.95,0.49,-0.85,0.2,-17.43,3.07,1.91,0,0,0,2.99,0.88,9.29,7.47433376312256
,0,0,-0.16,-0.27,0.95,0.04,0.3,0.32,-15.84,4,3.29,0,0,0,2.88,0.83,9.33,7.49095225334167
,0,-0,-0.14,-0.27,0.95,-1,1.98,0.89,-5.55,-9.08,9.05,0,0,0,2.71,0.72,9.39,7.50593161582947
,0,-0.02,-0.12,-0.26,0.96,-2.36,2.28,1.42,10.04,-6.17,12.32,0,0,0,2.37,0.32,9.5,7.52450513839722
,0,-0.01,-0.1,-0.26,0.96,-0.52,2.19,0.35,-2.86,-10.96,0.24,0,0,0,1.91,0.24,9.61,7.54110288619995
,0,-0.01,-0.08,-0.26,0.96,0.44,3.83,-0.27,-3.86,1.41,25.82,0,0,0,1.55,0.29,9.67,7.55607724189758
,0,0,-0.06,-0.28,0.96,0.63,3.39,-0.87,-3.22,3.58,23.19,0,0,0,1.03,0.36,9.74,7.57555317878723
,0,0,-0.05,-0.29,0.96,-0.56,0.87,-2.23,5.53,-5.16,13.91,0,0,0,0.87,0.32,9.76,7.59162569046021
,0,0,-0.04,-0.29,0.96,-0.02,1.04,-0.04,2.67,2.05,9.58,0,0,0,0.77,0.32,9.77,7.60670709609985
,0,0.01,-0.03,-0.29,0.96,-0.05,1.1,0.1,0.73,0.7,13.17,0,0,0,0.6,0.29,9.78,7.62547445297241
,0,0,-0.03,-0.29,0.96,-0.25,0.33,0.28,-0.53,0.81,10.8,0,0,0,0.55,0.25,9.78,7.64189696311951
,0,0,-0.03,-0.28,0.96,-0.17,0.01,0.5,1.48,0.47,9.72,0,0,0,0.55,0.23,9.78,7.65678858757019
,0,0,-0.03,-0.28,0.96,-0.17,0.1,0.28,-0.05,0.74,11.39,0,0,0,0.52,0.2,9.79,7.67456674575806
,0,0,-0.03,-0.28,0.96,-0.15,0.24,-0.03,-0.02,-0.84,10.1,0,0,0,0.49,0.18,9.79,7.6912202835083
,0,0,-0.03,-0.28,0.96,0.04,0.14,-0.04,-0.35,-0.17,10.33,0,0,0,0.48,0.18,9.79,7.7061870098114
,0,0,-0.03,-0.28,0.96,0.07,0.04,0.01,0.3,-0.06,10.08,0,0,0,0.47,0.2,9.79,7.72523856163025
,0,0,-0.03,-0.28,0.96,0.07,0,0.03,0.3,0.4,9.94,0,0,0,0.47,0.21,9.79,7.74165058135986
,0,0,-0.03,-0.28,0.96,0.05,0.04,0.01,0.56,0.39,9.5,0,0,0,0.47,0.21,9.79,7.75654435157776
,0,0,-0.03,-0.28,0.96,0.04,0.08,-0.02,0.78,0.06,10.06,0,0,0,0.45,0.21,9.79,7.77465963363647
,0,0,-0.02,-0.28,0.96,0,0.09,-0.04,1.63,0.33,9.73,0,0,0,0.44,0.22,9.79,7.7915153503418
,0,0.01,-0.02,-0.28,0.96,0.05,0.11,-0.05,0.63,0.08,10.42,0,0,0,0.43,0.22,9.79,7.80636954307556
,0,0.01,-0.02,-0.28,0.96,0.03,0.03,-0.02,0.88,-0.03,9.63,0,0,0,0.42,0.23,9.79,7.82538795471191
,0,0.01,-0.02,-0.28,0.96,0.03,0.08,-0.03,0.16,0.3,9.86,0,0,0,0.4,0.24,9.79,7.84184694290161
,0,0.01,-0.02,-0.28,0.96,0.03,0.07,-0.03,0.53,0.32,9.87,0,0,0,0.39,0.24,9.79,7.85631632804871
,0,0.01,-0.02,-0.28,0.96,0.04,0.09,-0.03,-0.27,0.1,10.12,0,0,0,0.37,0.25,9.79,7.87514495849609
,0,0.01,-0.02,-0.28,0.96,0.04,0.09,-0.03,0.02,0.43,9.83,0,0,0,0.36,0.26,9.79,7.89224171638489
,0,0.01,-0.02,-0.28,0.96,0.08,0.05,-0,0.14,0.33,9.87,0,0,0,0.36,0.27,9.79,7.90667724609375
,0,0.01,-0.02,-0.28,0.96,0.04,0.07,-0.03,0.59,0.08,9.57,0,0,0,0.35,0.27,9.79,7.92541480064392
,0,0.01,-0.02,-0.28,0.96,0.05,-0,-0.01,1,0.04,9.64,0,0,0,0.35,0.28,9.79,7.94193434715271
,0,0.01,-0.02,-0.28,0.96,0.06,0.01,-0.02,1.2,0.02,9.68,0,0,0,0.35,0.29,9.79,7.95666027069092
,0,0.01,-0.02,-0.28,0.96,0.05,0.02,-0.03,0.77,0.53,9.44,0,0,0,0.35,0.3,9.79,7.97536730766296
,0,0.01,-0.02,-0.28,0.96,0.11,0.04,-0.01,1.06,0.13,9.72,0,0,0,0.34,0.32,9.79,7.99241065979004
,0,0.01,-0.02,-0.28,0.96,0.08,0.09,-0.02,0.87,0.29,9.97,0,0,0,0.34,0.33,9.79,8.00725269317627
,0,0.01,-0.02,-0.28,0.96,0.07,0.07,-0.02,0.35,0.56,9.74,0,0,0,0.32,0.35,9.79,8.02573299407959
,0,0.02,-0.02,-0.28,0.96,0.29,0.07,0.04,0.1,0.33,9.99,0,0,0,0.31,0.4,9.79,8.04225659370422
,0,0.02,-0.02,-0.28,0.96,0.22,0.1,-0.02,0.15,0.3,10.04,0,0,0,0.3,0.43,9.79,8.05734324455261
,0,0.02,-0.02,-0.28,0.96,0.1,0.11,-0.05,0.17,0.52,9.58,0,0,0,0.28,0.45,9.79,8.07575917243958
,0,0.02,-0.02,-0.29,0.96,0.12,0.16,-0.08,0.92,0.62,9.53,0,0,0,0.24,0.47,9.79,8.09229373931885
,0,0.02,-0.02,-0.29,0.96,0,0.26,-0.1,-0.04,0.13,9.71,0,0,0,0.22,0.47,9.79,8.1072039604187
,0,0.02,-0.02,-0.29,0.96,0.21,0.27,-0.08,0.21,-0.19,9.95,0,0,0,0.16,0.5,9.79,8.12614417076111
,0,0.02,-0.01,-0.29,0.96,0.15,0.38,-0.03,0.78,0.06,9.95,0,0,0,0.08,0.53,9.79,8.14254665374756
,0,0.03,-0.01,-0.29,0.96,0.08,0.45,0.03,0.08,0.37,10.33,0,0,0,0.04,0.53,9.79,8.15747427940369
,0,0.03,-0.01,-0.29,0.96,0.15,0.48,0.07,-0.37,0.44,10.62,0,0,0,-0.05,0.58,9.78,8.1763608455658
,0,0.03,0,-0.28,0.96,0.24,0.75,0.15,0.64,0.19,11.32,0,0,0,-0.18,0.6,9.78,8.19296646118164
,0,0.03,0,-0.28,0.96,-0.1,0.47,0.31,1.62,1.46,8.29,0,0,0,-0.23,0.6,9.78,8.20811700820923
,0,0.04,0.01,-0.28,0.96,0,0.75,0.27,1.75,0.55,11.12,0,0,0,-0.4,0.6,9.77,8.22597765922546
,0,0.04,0.02,-0.28,0.96,0.06,1.15,0.23,1.12,1.44,9.32,0,0,0,-0.64,0.63,9.76,8.24279761314392
,0,0.04,0.03,-0.27,0.96,0.25,1.78,0.47,-0.9,0.34,11.14,0,0,0,-0.8,0.66,9.75,8.25789475440979
,0,0.05,0.05,-0.27,0.96,0.2,1.63,0.69,1.35,0.37,11.75,0,0,0,-1.1,0.68,9.72,8.27631711959839
,0,0.05,0.06,-0.26,0.96,-0.09,1.7,1.02,2.18,1.9,7.92,0,0,0,-1.41,0.66,9.68,8.29317617416382
,0,0.05,0.07,-0.25,0.96,-0.2,2.29,0.83,6.1,-0.97,10.96,0,0,0,-1.62,0.66,9.64,8.30789661407471
,0,0.07,0.11,-0.25,0.96,0.32,3.68,0.21,1.62,-4.58,10.32,0,0,0,-2.39,0.77,9.47,8.3265233039856
,0,0.1,0.16,-0.25,0.95,1.47,5.46,-0.3,2.53,1.7,12.78,0,0,0,-3.44,1.08,9.11,8.343505859375
,0,0.12,0.19,-0.25,0.94,2.84,6.84,-0.71,2.73,3.45,11.7,0,0,0,-4.04,1.31,8.83,8.35873866081238
,0,0.17,0.25,-0.25,0.92,3.25,7.74,-0.97,3.78,-2.56,20.15,0,0,0,-5.37,1.78,8,8.37678337097168
,0,0.21,0.31,-0.27,0.89,3.35,8.04,-1.66,7.78,1.84,23.46,0,0,0,-6.52,2.04,7.02,8.39343404769897
,0,0.22,0.33,-0.27,0.88,1.79,3.6,-2.21,-7.78,5.76,23.74,0,0,0,-6.81,2.01,6.75,8.40883564949036
,0,0.21,0.33,-0.29,0.87,-0.09,0.92,-1.92,7.57,1.11,10.89,0,0,0,-6.86,1.76,6.77,8.42673110961914
,0,0.2,0.32,-0.29,0.88,-1.07,-1.74,-0.83,4.63,1.37,8.38,0,0,0,-6.68,1.53,7,8.44337868690491
,0,0.19,0.32,-0.3,0.88,-0.77,-1.71,-0.62,5.73,1.81,6.78,0,0,0,-6.57,1.44,7.12,8.45834517478943
,0,0.18,0.3,-0.3,0.89,-0.61,-1.89,-0.5,4.25,1.75,9.67,0,0,0,-6.3,1.31,7.39,8.47672820091248
,0,0.17,0.28,-0.3,0.89,-0.34,-2.37,-0.18,3.05,1.47,11.05,0,0,0,-5.94,1.25,7.7,8.49355387687683
,0,0.16,0.27,-0.31,0.9,-0.28,-3.16,0.01,1.58,1.31,10.38,0,0,0,-5.7,1.23,7.88,8.50954961776733
,0,0.15,0.24,-0.31,0.91,-0.3,-3.51,0.09,0,0.94,8.65,0,0,0,-5.13,1.2,8.26,8.52670836448669
,0,0.13,0.2,-0.31,0.92,-0.35,-3.87,0.12,-0.23,0.66,8.41,0,0,0,-4.49,1.15,8.63,8.54430365562439
,0,0.13,0.19,-0.32,0.92,-0.37,-3.96,0.03,-1.63,0.71,10.12,0,0,0,-4.16,1.12,8.8,8.55938506126404
,0,0.11,0.15,-0.32,0.93,-0.34,-4.01,-0.03,-1.9,1.17,11.63,0,0,0,-3.45,1.06,9.11,8.57730722427368
,0,0.1,0.11,-0.33,0.93,-0.27,-4.14,-0.13,-2.32,1.65,12.38,0,0,0,-2.71,1,9.36,8.59396719932556
,0,0.09,0.1,-0.33,0.94,-0.25,-4.29,-0.11,-2.33,2.01,12.67,0,0,0,-2.32,0.97,9.47,8.60947608947754
,0,0.07,0.06,-0.33,0.94,-0.25,-4.31,-0.07,-2.11,2.38,12.18,0,0,0,-1.52,0.93,9.64,8.62721085548401
,0,0.06,0.02,-0.33,0.94,-0.24,-4.28,0.02,-1.73,2.73,12.07,0,0,0,-0.72,0.88,9.73,8.64414095878601
,0,0.05,0,-0.33,0.94,-0.26,-4.03,0.2,-1.61,2.4,12.13,0,0,0,-0.34,0.86,9.76,8.65910196304321
,0,0.03,-0.03,-0.33,0.94,-0.26,-3.81,0.26,-2.67,2.9,12.44,0,0,0,0.35,0.81,9.76,8.67737221717834
,0,0.02,-0.06,-0.33,0.94,-0.36,-3.4,0.37,-2.73,3.15,12.08,0,0,0,0.98,0.73,9.72,8.69422459602356
,0,0.01,-0.07,-0.33,0.94,-0.37,-2.86,0.49,-4.72,3.87,13.13,0,0,0,1.25,0.69,9.7,8.70947742462158
,0,0,-0.09,-0.32,0.94,-0.34,-2.54,0.57,-6.81,5.1,14.78,0,0,0,1.71,0.61,9.63,8.72733950614929
,0,-0.01,-0.11,-0.32,0.94,-0.39,-1.96,0.64,-9.77,3.59,17.06,0,0,0,2.08,0.52,9.56,8.74388003349304
,0,-0.01,-0.12,-0.31,0.94,-0.14,-2.17,0.81,-13.67,0.96,13.74,0,0,0,2.28,0.48,9.52,8.75908279418945
,0,-0.02,-0.14,-0.31,0.94,0.31,-2.24,0.76,-15.59,2.61,9.37,0,0,0,2.69,0.54,9.41,8.77739262580872
,0,-0.02,-0.16,-0.3,0.94,0.73,-1.93,0.7,-17.21,2.25,5.07,0,0,0,3.01,0.63,9.31,8.79480266571045
,0,-0.01,-0.16,-0.29,0.94,0.86,-0.65,0.91,-17.48,1.39,1.16,0,0,0,3.07,0.68,9.28,8.80955171585083
,0,-0.01,-0.16,-0.28,0.95,0.81,0.38,0.93,-21.79,6.53,-11.45,0,0,0,2.94,0.74,9.32,8.82718348503113
,0,-0.01,-0.13,-0.27,0.95,-0.53,2.62,1.18,-17.53,-5.52,3.15,0,0,0,2.44,0.47,9.48,8.84427499771118
,0,-0.02,-0.12,-0.27,0.95,-1.8,1.05,0.81,8.01,-9.3,23.53,0,0,0,2.35,0.29,9.51,8.85962390899658
,0,-0.01,-0.11,-0.27,0.96,-0.29,0.99,0.23,0.96,-3.79,10.13,0,0,0,2.05,0.27,9.58,8.87775373458862
,0,-0,-0.08,-0.28,0.96,0.35,3.24,-0.48,-1.7,-1.6,19.94,0,0,0,1.47,0.38,9.68,8.89479422569275
,0,0,-0.07,-0.29,0.95,0.23,2.15,-2.54,-1.7,2.49,18.17,0,0,0,1.26,0.43,9.71,8.90942049026489
,0,0.01,-0.06,-0.3,0.95,0.14,1.59,-1.72,3.04,-1.09,15.07,0,0,0,1.01,0.48,9.74,8.92757773399353
,0,0.01,-0.05,-0.3,0.95,0.13,0.89,-0.16,-0.82,1.86,9.25,0,0,0,0.89,0.5,9.75,8.94469976425171
,0,0.01,-0.05,-0.3,0.95,-0.02,0.27,0.06,1.58,1.77,10.98,0,0,0,0.87,0.49,9.75,8.95964741706848
,0,0.01,-0.04,-0.3,0.95,0.04,0.92,0.14,1.68,0.5,9.48,0,0,0,0.74,0.49,9.76,8.97762632369995
,0,0.01,-0.04,-0.3,0.95,-0.18,0.06,0.29,1.74,0.37,9.39,0,0,0,0.72,0.45,9.76,8.99476194381714
,0,0.01,-0.04,-0.3,0.95,-0.26,0.28,0.09,0.42,0.22,10.12,0,0,0,0.69,0.42,9.77,9.00967073440552
,0,0.01,-0.04,-0.3,0.95,-0.25,0.16,0.03,0.75,-0.02,10.03,0,0,0,0.67,0.38,9.77,9.02784991264343
,0,0.01,-0.04,-0.3,0.95,-0.17,0.03,-0.1,0.67,0.19,9.93,0,0,0,0.66,0.35,9.77,9.04539179801941
,0,0.01,-0.04,-0.3,0.95,-0.15,0.04,-0.16,1.13,0.19,10.26,0,0,0,0.66,0.34,9.77,9.06012201309204
,0,0.01,-0.04,-0.3,0.95,-0.08,-0.01,-0.1,-0.21,0,10.72,0,0,0,0.64,0.33,9.77,9.07807970046997
,0,0.01,-0.04,-0.3,0.95,-0.01,0.12,-0,0.01,0.25,9.89,0,0,0,0.63,0.33,9.78,9.09500074386597
,0,0.01,-0.04,-0.3,0.95,0.01,0.09,-0.01,0.74,0.15,10.07,0,0,0,0.62,0.33,9.78,9.11013722419739
,0,0.01,-0.03,-0.3,0.95,-0.01,0.08,-0.01,0.5,0.41,9.72,0,0,0,0.6,0.33,9.78,9.12802004814148
,0,0.01,-0.03,-0.3,0.95,0.03,0.05,0.02,1.04,0.57,9.71,0,0,0,0.6,0.33,9.78,9.14547157287598
,0,0.01,-0.03,-0.3,0.95,0.01,0.03,0.02,0.65,0.25,9.92,0,0,0,0.59,0.34,9.78,9.15951132774353
,0,0.01,-0.03,-0.3,0.95,0.01,0.01,0.01,1.02,0.28,9.85,0,0,0,0.59,0.34,9.78,9.17810940742493
,0,0.01,-0.03,-0.3,0.95,-0.01,0.04,-0.01,1.04,0.25,9.75,0,0,0,0.59,0.34,9.78,9.19545245170593
,0,0.01,-0.03,-0.3,0.95,-0.01,0.07,-0.02,0.86,0.49,10.06,0,0,0,0.58,0.34,9.78,9.21081781387329
,0,0.01,-0.03,-0.3,0.95,-0.01,0.09,-0.02,0.65,0.52,9.83,0,0,0,0.56,0.34,9.78,9.22831630706787
,0,0.01,-0.03,-0.3,0.95,0.01,0.08,-0.03,0.86,0.48,9.69,0,0,0,0.56,0.34,9.78,9.24593019485474
,0,0.01,-0.03,-0.3,0.95,-0.01,0.07,-0.05,0.7,0.31,9.44,0,0,0,0.54,0.34,9.78,9.26093578338623
,0,0.01,-0.03,-0.3,0.95,0,0.02,-0.04,0.82,0.26,9.4,0,0,0,0.54,0.34,9.78,9.27873134613037
,0,0.01,-0.03,-0.3,0.95,0.01,0.06,-0.05,0.91,0.28,9.63,0,0,0,0.53,0.34,9.78,9.29581594467163
,0,0.01,-0.03,-0.3,0.95,-0.02,0.05,-0.04,1.09,0.39,9.78,0,0,0,0.52,0.34,9.78,9.31128430366516
,0,0.01,-0.03,-0.3,0.95,0,0.06,-0.04,0.93,0.21,9.89,0,0,0,0.52,0.34,9.78,9.3286759853363
,0,0.01,-0.03,-0.3,0.95,-0,0.08,-0.05,0.96,0.58,9.84,0,0,0,0.52,0.34,9.78,9.34626293182373
,0,0.01,-0.03,-0.3,0.95,0.15,0.07,-0.01,1.31,0.04,9.77,0,0,0,0.53,0.36,9.78,9.36203932762146
,0,0.01,-0.03,-0.3,0.95,0.09,0.09,-0.03,0.91,0.54,9.97,0,0,0,0.53,0.37,9.78,9.37838387489319
,0,0.01,-0.03,-0.3,0.95,0,0.13,-0.08,0.42,0.36,9.85,0,0,0,0.52,0.37,9.78,9.39610505104065
,0,0.01,-0.03,-0.3,0.95,0.19,0.14,0,0.53,0.01,9.86,0,0,0,0.49,0.4,9.78,9.41144490242004
,0,0.01,-0.03,-0.3,0.95,0.22,0.15,0,0.05,0.07,9.52,0,0,0,0.46,0.44,9.78,9.42916107177734
,0,0.02,-0.03,-0.3,0.95,0.18,0.19,-0.03,0.18,0.02,9.42,0,0,0,0.45,0.45,9.78,9.4467089176178
,0,0.02,-0.03,-0.3,0.95,0.16,0.38,-0.07,1.41,0.49,10.5,0,0,0,0.38,0.49,9.78,9.46221661567688
,0,0.02,-0.02,-0.3,0.95,-0.03,0.46,-0.03,0.31,0,9.55,0,0,0,0.3,0.5,9.78,9.47852373123169
,0,0.02,-0.02,-0.3,0.95,0.26,0.6,-0.04,-0.47,0.19,9.99,0,0,0,0.24,0.52,9.78,9.49632787704468
,0,0.02,-0.01,-0.3,0.95,0.15,0.67,0.12,-0.2,1.06,9.9,0,0,0,0.12,0.54,9.79,9.51233720779419
,0,0.03,-0.01,-0.3,0.95,0.17,0.89,0.3,1.34,1.57,6.87,0,0,0,-0.02,0.56,9.79,9.52923250198364
,0,0.03,0,-0.3,0.95,0.02,0.62,0.14,2.41,1.01,8.88,0,0,0,-0.08,0.56,9.79,9.54660773277283
,0,0.03,0.01,-0.3,0.95,0.04,1.21,0.3,1.35,1.29,8.66,0,0,0,-0.3,0.57,9.78,9.56266236305237
,0,0.04,0.02,-0.29,0.96,0.09,1.12,0.15,0.34,-0.38,11.73,0,0,0,-0.56,0.59,9.77,9.57948851585388
,0,0.05,0.04,-0.29,0.96,0.33,1.96,0.33,-0.06,0.38,11.07,0,0,0,-0.74,0.62,9.75,9.59708762168884
,0,0.05,0.05,-0.29,0.96,-0.16,2.07,0.6,0.69,0.85,13.39,0,0,0,-1.11,0.64,9.72,9.61297297477722
,0,0.05,0.06,-0.28,0.96,-0.15,2.1,0.42,5.03,-2.04,10.41,0,0,0,-1.48,0.62,9.67,9.62961483001709
,0,0.06,0.09,-0.28,0.95,0.06,2.52,0.45,2.63,-0.1,11.61,0,0,0,-1.72,0.63,9.63,9.6472282409668
,0,0.07,0.11,-0.27,0.95,0.15,4.6,0.03,-1.77,-4.79,10.69,0,0,0,-2.49,0.68,9.46,9.66378259658813
,0,0.09,0.16,-0.27,0.94,0.94,5,-0.31,4.07,0.54,12.04,0,0,0,-3.45,0.89,9.13,9.67995643615723
,0,0.14,0.22,-0.28,0.93,2.21,6.66,-0.44,4.36,2.6,10.74,0,0,0,-4.04,1.07,8.86,9.69765663146973
,0,0.16,0.25,-0.28,0.91,2.87,8.3,-0.9,2.13,0.33,6.54,0,0,0,-5.38,1.46,8.06,9.71444272994995
,0,0.2,0.32,-0.28,0.88,2.62,8.83,-1.23,-0.05,-2.45,38.52,0,0,0,-6.67,1.65,6.98,9.730140209198
,0,0.22,0.36,-0.31,0.85,3.43,6.27,-2.68,-9.94,7.18,39.52,0,0,0,-7.13,1.69,6.51,9.74763488769531
,0,0.21,0.36,-0.32,0.85,-1.56,-0.91,-2.34,7.41,0.92,10.42,0,0,0,-7.3,1.3,6.41,9.76391839981079
,0,0.19,0.34,-0.32,0.86,-1.12,-2.62,-0.76,5.67,1.88,4.14,0,0,0,-6.99,1.05,6.79,9.77970552444458
,0,0.18,0.33,-0.33,0.87,-0.95,-1.99,-0.73,4.88,2.63,4.73,0,0,0,-6.87,0.94,6.93,9.79747271537781
,0,0.17,0.32,-0.33,0.87,-0.69,-2.26,-0.54,4.44,3.08,6.46,0,0,0,-6.57,0.75,7.23,9.81465983390808
,0,0.16,0.3,-0.34,0.88,-0.55,-2.3,-0.29,2.16,2.24,10.72,0,0,0,-6.23,0.66,7.53,9.83048248291016
,0,0.14,0.28,-0.34,0.89,-0.27,-2.8,0.08,1.37,2.19,10.6,0,0,0,-6.02,0.65,7.7,9.84757304191589
,0,0.14,0.26,-0.34,0.89,-0.15,-3.57,0.3,0.8,1.5,8.35,0,0,0,-5.5,0.65,8.08,9.86447477340698
,0,0.13,0.23,-0.34,0.9,-0.12,-3.77,0.35,-0.59,0.97,8.64,0,0,0,-4.89,0.67,8.47,9.88022255897522
,0,0.11,0.19,-0.34,0.91,-0.13,-3.85,0.37,-1.01,0.58,9.47,0,0,0,-4.57,0.68,8.64,9.89814829826355
,0,0.1,0.18,-0.34,0.92,-0.12,-4.01,0.23,-2.03,1,11.45,0,0,0,-3.89,0.68,8.97,9.91454076766968
,0,0.09,0.14,-0.35,0.92,-0.07,-4.11,0.15,-2.32,2.43,12.52,0,0,0,-3.15,0.67,9.26,9.93029737472534
,0,0.07,0.1,-0.35,0.93,-0.14,-4.28,0.14,-2.14,2.58,12.88,0,0,0,-2.76,0.66,9.38,9.94794797897339
,0,0.07,0.08,-0.35,0.93,-0.23,-4.35,0.27,-1.93,3.16,13.05,0,0,0,-1.97,0.64,9.58,9.9648814201355
,0,0.05,0.04,-0.35,0.94,-0.22,-4.34,0.37,-1.95,3.55,13.14,0,0,0,-1.15,0.61,9.71,9.98054337501526
,0,0.03,0.01,-0.34,0.94,-0.2,-4.24,0.59,-2.41,3.45,14.01,0,0,0,-0.75,0.6,9.75,9.9979612827301
,0,0.03,-0.01,-0.34,0.94,-0.22,-4.02,0.71,-3.03,3.5,14.17,0,0,0,0.02,0.56,9.79,10.0153210163116
,0,0.01,-0.04,-0.34,0.94,-0.3,-3.9,0.73,-5.54,2.57,14.69,0,0,0,0.75,0.49,9.76,10.0306148529053
,0,-0,-0.08,-0.33,0.94,-0.4,-3.61,0.63,-6.22,2.77,13.47,0,0,0,1.09,0.45,9.73,10.0484499931335
,0,-0.01,-0.09,-0.33,0.94,-0.15,-3.18,0.45,-8.97,5.13,12.61,0,0,0,1.72,0.39,9.64,10.0655941963196
,0,-0.02,-0.11,-0.32,0.94,0.09,-2.47,0.38,-11.43,3.18,13.29,0,0,0,2.21,0.39,9.54,10.0812494754791
,0,-0.02,-0.14,-0.32,0.94,0.29,-2.24,0.34,-12.97,2.29,12.45,0,0,0,2.61,0.46,9.44,10.0988838672638
,0,-0.02,-0.15,-0.32,0.94,1.17,-1.89,0.26,-16.47,2.3,11.03,0,0,0,2.78,0.56,9.38,10.1161119937897
,0,-0.01,-0.16,-0.31,0.94,1.43,-1.42,0.37,-17.27,2.4,6.61,0,0,0,3.06,0.81,9.28,10.1333274841309
,0,-0,-0.17,-0.3,0.94,1.26,-1.06,0.56,-17.64,4.14,-0.51,0,0,0,3.2,0.96,9.21,10.1497950553894
,0,-0,-0.17,-0.3,0.94,0.5,0.55,1.2,-19.34,8.05,-2.54,0,0,0,3.17,0.97,9.22,10.1674182415009
,0,-0.01,-0.15,-0.28,0.95,-2.42,2.78,2.5,3.02,-21.14,23.02,0,0,0,2.79,0.58,9.38,10.1876368522644
,0,-0.02,-0.13,-0.27,0.95,-0.16,0.69,0.88,1.98,-20.88,-9.67,0,0,0,2.63,0.33,9.44,10.2026951313019
,0,-0.01,-0.1,-0.28,0.96,-0.16,2.65,-0.26,1.04,-21.39,5.84,0,0,0,2.38,0.32,9.5,10.2191023826599
,0,0,-0.09,-0.29,0.95,0.47,3.86,-3.13,-3.52,8.39,18.6,0,0,0,1.59,0.49,9.66,10.2391221523285
,0,0.01,-0.07,-0.3,0.95,0.06,1.77,-0.08,0.34,2.83,16.3,0,0,0,1.19,0.52,9.71,10.2533082962036
,0,0.01,-0.05,-0.3,0.95,-0.29,1.47,0.13,-1.16,-3.9,21.29,0,0,0,0.92,0.43,9.75,10.2698614597321
,0,0.01,-0.05,-0.3,0.95,-0.15,0.53,0.31,4.31,3.37,4.39,0,0,0,0.87,0.41,9.75,10.2890961170197
,0,0.01,-0.04,-0.29,0.96,-0.05,1.12,0.74,-0.82,1.62,12.64,0,0,0,0.74,0.39,9.77,10.3036315441132
,0,0.01,-0.04,-0.29,0.96,-0.2,0.66,0.16,0.15,0.54,10.77,0,0,0,0.67,0.35,9.77,10.3194997310638
,0,0.01,-0.04,-0.29,0.96,0.03,-0.11,0.48,1.61,0.72,10.22,0,0,0,0.69,0.35,9.77,10.3395888805389
,0,0.01,-0.04,-0.29,0.96,-0.1,0.26,-0.04,0.42,0.12,10.97,0,0,0,0.66,0.34,9.77,10.3540732860565
,0,0.01,-0.04,-0.29,0.96,-0.09,0.26,-0.09,0.35,-0.56,10.79,0,0,0,0.63,0.33,9.78,10.369796037674
,0,0.01,-0.03,-0.29,0.96,0.07,0.1,0.02,0.59,0.15,10.08,0,0,0,0.61,0.34,9.78,10.3893678188324
,0,0.01,-0.03,-0.29,0.96,0.01,0.1,0.02,0.67,0.11,10.08,0,0,0,0.59,0.34,9.78,10.404224395752
,0,0.01,-0.03,-0.29,0.96,0.04,0.13,0.01,-0.11,0.71,9.95,0,0,0,0.56,0.35,9.78,10.420175075531
,0,0.01,-0.03,-0.29,0.96,0.03,0.17,-0.03,0.5,0.49,9.71,0,0,0,0.55,0.35,9.78,10.4398815631866
,0,0.01,-0.03,-0.29,0.96,0.01,0.15,-0.09,0.69,0.63,9.82,0,0,0,0.52,0.36,9.78,10.4535989761353
,0,0.01,-0.03,-0.29,0.96,0.03,0.11,-0.09,0.45,0.08,10.26,0,0,0,0.51,0.36,9.78,10.4703316688538
,0,0.01,-0.03,-0.29,0.96,0.08,0.02,-0.02,0.99,0.1,9.55,0,0,0,0.5,0.38,9.78,10.4897196292877
,0,0.01,-0.03,-0.29,0.96,0.01,0.04,-0,1.19,0.16,9.94,0,0,0,0.48,0.38,9.78,10.5041682720184
,0,0.01,-0.03,-0.29,0.96,-0.02,0.08,-0.03,0.84,0.35,9.33,0,0,0,0.48,0.38,9.78,10.519816160202
,0,0.01,-0.03,-0.29,0.96,-0,0.11,-0.04,0.49,0.48,10.09,0,0,0,0.46,0.38,9.78,10.5397469997406
,0,0.01,-0.03,-0.29,0.96,0.05,0.08,-0.03,0.42,0.47,9.73,0,0,0,0.44,0.38,9.78,10.5545177459717
,0,0.01,-0.03,-0.29,0.96,0.1,0.06,-0.01,0.22,0.28,9.75,0,0,0,0.43,0.39,9.78,10.5701837539673
,0,0.01,-0.03,-0.29,0.96,0.06,0.06,-0.03,-0.03,-0.03,9.54,0,0,0,0.42,0.41,9.78,10.5893847942352
,0,0.01,-0.03,-0.29,0.96,0.06,0.05,-0.03,-0.23,-0.16,9.61,0,0,0,0.41,0.42,9.78,10.6040897369385
,0,0.02,-0.03,-0.29,0.96,0.04,0.07,-0.04,-0.62,-0.95,9.55,0,0,0,0.4,0.43,9.78,10.6202118396759
,0,0.02,-0.03,-0.29,0.96,0.03,0.09,-0.13,1.24,1.16,9.89,0,0,0,0.38,0.43,9.78,10.6397316455841
,0,0.02,-0.02,-0.29,0.96,-0,0.08,-0.05,0.07,0.23,9.54,0,0,0,0.37,0.43,9.78,10.6539556980133
,0,0.02,-0.02,-0.29,0.96,0.01,0.06,-0.04,0.5,0.32,10.2,0,0,0,0.37,0.43,9.79,10.6700193881989
,0,0.02,-0.02,-0.29,0.96,0.08,0.07,-0.03,1.41,0.4,9.7,0,0,0,0.35,0.44,9.79,10.6895172595978
,0,0.02,-0.02,-0.29,0.96,0.02,0.1,-0.03,0.41,0.16,9.83,0,0,0,0.34,0.45,9.79,10.7040648460388
,0,0.02,-0.02,-0.29,0.96,0.02,0.08,0.01,0.1,0.66,9.58,0,0,0,0.33,0.45,9.79,10.7204084396362
,0,0.02,-0.02,-0.29,0.96,0.09,0.09,0.02,0.74,0.63,9.88,0,0,0,0.31,0.46,9.79,10.7397310733795
,0,0.02,-0.02,-0.29,0.96,0.08,0.21,0.04,0.35,0.07,9.99,0,0,0,0.28,0.49,9.79,10.7542440891266
,0,0.02,-0.02,-0.29,0.96,0.12,0.22,0.03,-0.01,0.86,9.75,0,0,0,0.26,0.5,9.79,10.7700321674347
,0,0.02,-0.02,-0.29,0.96,0.16,0.29,0.07,-0.68,0.17,10.44,0,0,0,0.21,0.53,9.79,10.7891170978546
,0,0.03,-0.02,-0.29,0.96,0.19,0.43,0.08,0.68,0.55,9.92,0,0,0,0.14,0.57,9.78,10.8035275936127
,0,0.03,-0.01,-0.29,0.96,0.14,0.52,0.06,1.67,0.27,10.27,0,0,0,0.09,0.58,9.78,10.8196411132812
,0,0.03,-0.01,-0.29,0.96,0.06,0.38,0.12,-1.4,1.1,8.72,0,0,0,0.01,0.59,9.78,10.8387105464935
,0,0.03,-0,-0.29,0.96,0.01,0.66,0.19,0.94,0.39,11.17,0,0,0,-0.09,0.6,9.78,10.8536312580109
,0,0.03,-0,-0.29,0.96,-0.09,0.62,0,1.04,1.14,8.54,0,0,0,-0.15,0.59,9.78,10.8703351020813
,0,0.03,0.01,-0.29,0.96,-0.01,1.14,0.18,0.66,1.3,11.77,0,0,0,-0.35,0.58,9.78,10.8890995979309
,0,0.04,0.02,-0.28,0.96,0.12,1.18,0.22,1.15,0.88,9.49,0,0,0,-0.55,0.6,9.77,10.9032876491547
,0,0.04,0.03,-0.28,0.96,0.25,1.53,0.39,-1.27,-0.09,11.31,0,0,0,-0.7,0.63,9.76,10.9197955131531
,0,0.05,0.04,-0.28,0.96,0.07,1.25,0.73,0.27,-0.55,9.52,0,0,0,-0.94,0.66,9.73,10.9390225410461
,0,0.05,0.05,-0.27,0.96,0.33,1.65,1.19,2.2,-0.08,7.77,0,0,0,-1.24,0.73,9.7,10.9542620182037
,0,0.05,0.06,-0.26,0.96,-0.31,1.99,1.6,3.77,-0.21,9.07,0,0,0,-1.41,0.72,9.67,10.9701023101807
,0,0.07,0.09,-0.25,0.96,1.06,4.24,-0.04,5.96,-2.24,10.84,0,0,0,-2.05,0.83,9.55,10.9892539978027
,0,0.1,0.14,-0.25,0.95,2.16,5.7,-0.26,1.87,-0.39,12.32,0,0,0,-3.04,1.15,9.25,11.0040090084076
,0,0.12,0.16,-0.25,0.95,2.66,6.28,-0.37,1.61,1.37,12.82,0,0,0,-3.6,1.38,9.01,11.0200419425964
,0,0.16,0.23,-0.26,0.92,3.42,8.26,-1.29,3.04,2.16,7.24,0,0,0,-4.94,1.84,8.26,11.0392129421234
,0,0.21,0.3,-0.26,0.89,3.5,8.24,-1.84,2.14,-2.45,19.17,0,0,0,-6.26,2.18,7.21,11.0537459850311
,0,0.23,0.32,-0.27,0.88,2.92,5.96,-2.9,-1.72,-4.67,35.6,0,0,0,-6.73,2.2,6.77,11.0697972774506
,0,0.22,0.34,-0.31,0.86,-0.56,0.06,-3.95,-12.11,6.75,24.29,0,0,0,-7.05,1.71,6.59,11.0893783569336
,0,0.2,0.33,-0.32,0.86,-1.08,-1.89,-1.78,10.18,0.12,8.62,0,0,0,-6.86,1.32,6.87,11.1044478416443
,0,0.19,0.33,-0.33,0.86,-1.15,-1.54,-1.75,4.05,3.24,7.89,0,0,0,-6.78,1.13,6.98,11.1205770969391
,0,0.17,0.32,-0.34,0.87,-1.06,-2.04,-1.37,4.37,4.37,8.52,0,0,0,-6.54,0.78,7.25,11.138744354248
,0,0.15,0.3,-0.35,0.87,-0.77,-2.72,-0.87,3.36,3.73,9.11,0,0,0,-6.19,0.54,7.58,11.154128074646
,0,0.14,0.29,-0.36,0.88,-0.61,-3.11,-0.63,3.34,4.02,8.36,0,0,0,-5.96,0.46,7.76,11.17041015625
,0,0.13,0.26,-0.36,0.89,-0.33,-3.49,-0.15,1.83,1.95,7.57,0,0,0,-5.44,0.37,8.14,11.1890709400177
,0,0.11,0.23,-0.37,0.89,-0.12,-3.78,0.01,1.27,1.46,7.71,0,0,0,-4.84,0.34,8.51,11.2037653923035
,0,0.11,0.21,-0.37,0.9,-0.08,-3.86,0.04,0.66,1.05,9.22,0,0,0,-4.52,0.33,8.69,11.2203924655914
,0,0.09,0.18,-0.37,0.91,-0.15,-4.27,-0.03,-0.65,0.08,10.16,0,0,0,-3.81,0.31,9.03,11.2391283512115
,0,0.07,0.14,-0.38,0.91,-0.13,-4.38,-0.12,-1.15,-0.63,10.27,0,0,0,-3.02,0.29,9.32,11.2550053596497
,0,0.07,0.12,-0.38,0.92,0.05,-4.47,-0.35,-1.52,0.31,11.52,0,0,0,-2.62,0.28,9.44,11.2702128887177
,0,0.05,0.08,-0.38,0.92,0.09,-4.48,-0.34,-1.47,1.72,12.64,0,0,0,-1.79,0.28,9.63,11.2894148826599
,0,0.03,0.04,-0.39,0.92,0.02,-4.49,-0.2,-1.36,2.23,12.45,0,0,0,-0.96,0.27,9.75,11.3042325973511
,0,0.02,0.02,-0.39,0.92,-0.09,-4.33,0.12,-1.49,1.82,12.72,0,0,0,-0.55,0.26,9.78,11.3201584815979
,0,0.01,-0.02,-0.39,0.92,0,-4.07,0.38,-1.76,3.22,13.24,0,0,0,0.23,0.26,9.8,11.3393614292145
,0,-0.01,-0.05,-0.38,0.92,0.03,-3.89,0.53,-3.85,4.55,15.55,0,0,0,0.97,0.27,9.75,11.3541653156281
,0,-0.01,-0.07,-0.38,0.92,0.39,-3.79,0.97,-4.64,5.37,15.04,0,0,0,1.33,0.3,9.71,11.3703889846802
,0,-0.02,-0.1,-0.36,0.93,0.57,-3.39,1.49,-8.15,4.41,13.33,0,0,0,1.99,0.36,9.59,11.3893835544586
,0,-0.03,-0.13,-0.35,0.93,0.66,-3.08,1.6,-11.62,3.14,15.24,0,0,0,2.55,0.41,9.45,11.4046368598938
,0,-0.03,-0.14,-0.34,0.93,0.72,-2.72,1.62,-14.32,1.95,12.5,0,0,0,2.8,0.44,9.38,11.4203550815582
,0,-0.03,-0.17,-0.32,0.93,0.86,-2.05,1.45,-15.65,0.89,8.51,0,0,0,3.23,0.49,9.24,11.438981294632
,0,-0.03,-0.18,-0.31,0.93,1.04,-1.48,1.29,-16.95,-0.49,5.83,0,0,0,3.45,0.62,9.15,11.4546616077423
,0,-0.02,-0.18,-0.3,0.93,1.26,-0.26,0.84,-16.32,0.03,5,0,0,0,3.48,0.7,9.14,11.4709990024567
,0,-0.01,-0.18,-0.29,0.94,0.67,1.37,1.02,-18.09,2.26,4.34,0,0,0,3.32,0.8,9.19,11.4894304275513
,0,-0.01,-0.16,-0.28,0.95,0.13,2.03,1.47,-14.35,1.91,5.42,0,0,0,2.96,0.66,9.32,11.5045311450958
,0,-0.02,-0.15,-0.27,0.95,-1.67,0.66,1.99,4.78,-2.53,19.45,0,0,0,2.91,0.45,9.35,11.5206942558289
,0,-0.03,-0.14,-0.26,0.95,-0.93,1.25,0.65,16.68,-15.44,-11.97,0,0,0,2.79,0.16,9.39,11.539502620697
,0,-0.01,-0.1,-0.27,0.96,0.2,4.83,0.4,-10.2,-12.92,27.45,0,0,0,1.87,0.26,9.62,11.5551223754883
,0,-0,-0.08,-0.28,0.96,0.66,2.78,-2.74,-8.05,-8.46,26,0,0,0,1.6,0.36,9.66,11.5711622238159
,0,0.01,-0.07,-0.29,0.95,0.67,2.25,-0.84,2.35,7.69,17.54,0,0,0,1.18,0.53,9.72,11.5888500213623
,0,0.01,-0.05,-0.29,0.95,0.27,1.87,0.03,0.7,-0.45,21.57,0,0,0,0.87,0.53,9.75,11.6047356128693
,0,0.01,-0.05,-0.29,0.95,-0.08,0.17,0.15,-0.84,2.76,8,0,0,0,0.86,0.52,9.75,11.620507478714
,0,0.01,-0.05,-0.29,0.96,-0.07,0.81,0.46,3.28,0.11,10.63,0,0,0,0.81,0.5,9.75,11.6385691165924
,0,0.01,-0.04,-0.29,0.96,-0.13,0.7,0.18,0.89,0.61,9.65,0,0,0,0.73,0.47,9.76,11.6541473865509
,0,0.01,-0.04,-0.29,0.96,-0.23,0.12,0.33,0.78,0.13,10.18,0,0,0,0.72,0.44,9.76,11.6704521179199
,0,0.01,-0.04,-0.29,0.96,-0.17,0.05,0.12,-0.3,0.6,10.99,0,0,0,0.69,0.41,9.77,11.688524723053
,0,0.01,-0.04,-0.29,0.96,-0.2,0.08,-0.19,0.64,-0.14,10.55,0,0,0,0.7,0.38,9.77,11.7044608592987
,0,0.01,-0.04,-0.29,0.96,-0.1,-0.05,-0.09,1.46,0.45,10.12,0,0,0,0.7,0.37,9.77,11.7205338478088
,0,0.01,-0.04,-0.29,0.96,-0.11,0.09,-0.07,0,0.01,9.76,0,0,0,0.68,0.35,9.77,11.7386705875397
,0,0.01,-0.04,-0.29,0.96,-0.1,0.08,-0.05,0.18,0.62,10.26,0,0,0,0.66,0.33,9.77,11.7546560764313
,0,0.01,-0.04,-0.29,0.96,-0.08,0.15,-0.03,0.33,1.21,9.96,0,0,0,0.65,0.33,9.77,11.7703053951263
,0,0.01,-0.04,-0.29,0.96,-0.1,0.13,-0.03,0.07,0.55,9.93,0,0,0,0.62,0.31,9.78,11.7884967327118
,0,0.01,-0.03,-0.29,0.96,-0.02,0.13,-0.04,1.27,0.24,9.68,0,0,0,0.6,0.31,9.78,11.8050293922424
,0,0.01,-0.03,-0.29,0.96,0.01,0.11,-0.02,0.9,0.22,9.69,0,0,0,0.59,0.31,9.78,11.8208973407745
,0,0.01,-0.03,-0.29,0.96,-0.01,0.09,-0.01,1.6,0.13,9.49,0,0,0,0.58,0.31,9.78,11.8385019302368
,0,0.01,-0.03,-0.29,0.96,0.01,0.06,-0.03,1.55,0.05,9.46,0,0,0,0.56,0.32,9.78,11.854576587677
,0,0.01,-0.03,-0.29,0.96,-0.01,0.1,-0.05,0.41,0.34,9.79,0,0,0,0.55,0.32,9.78,11.8706920146942
,0,0.01,-0.03,-0.29,0.96,0,0.07,-0.03,0.67,0.38,9.74,0,0,0,0.53,0.32,9.78,11.8894879817963
,0,0.01,-0.03,-0.29,0.96,0.07,0.11,-0.01,0.45,-0.01,9.86,0,0,0,0.52,0.33,9.78,11.9053092002869
,0,0.01,-0.03,-0.29,0.96,0.02,0.09,-0.03,0.39,0.19,9.99,0,0,0,0.51,0.33,9.78,11.9211573600769
,0,0.01,-0.03,-0.29,0.96,0.01,0.06,-0.03,-0.12,0.44,10.05,0,0,0,0.49,0.34,9.78,11.938663482666
,0,0.01,-0.03,-0.29,0.96,0.01,0.08,-0.03,-0.3,0.25,9.8,0,0,0,0.48,0.34,9.78,11.9552893638611
,0,0.01,-0.03,-0.29,0.96,0.04,0.06,-0.01,-0.03,0.53,9.97,0,0,0,0.48,0.34,9.78,11.9714651107788
,0,0.01,-0.03,-0.29,0.96,0.1,0.02,-0,0.53,0.54,9.75,0,0,0,0.47,0.36,9.78,11.9897274971008
,0,0.01,-0.03,-0.29,0.96,0.18,0,0.04,1.73,-0.04,9.67,0,0,0,0.47,0.39,9.78,12.0055367946625
,0,0.01,-0.03,-0.29,0.96,0.04,0.05,-0.03,1.49,0.17,9.48,0,0,0,0.47,0.4,9.78,12.0208826065063
,0,0.01,-0.03,-0.29,0.96,-0.01,0.1,-0.06,0.7,0.64,9.56,0,0,0,0.45,0.4,9.78,12.0390341281891
,0,0.01,-0.03,-0.29,0.96,0.09,0.1,-0.05,0.72,0.29,9.66,0,0,0,0.43,0.42,9.78,12.0556681156158
,0,0.01,-0.03,-0.29,0.96,0.01,0.16,-0.07,1,0.33,9.17,0,0,0,0.41,0.42,9.78,12.0710854530334
,0,0.02,-0.02,-0.29,0.96,-0.02,0.26,-0.06,0.28,0.37,9.53,0,0,0,0.36,0.43,9.79,12.0895020961761
,0,0.02,-0.02,-0.29,0.96,0.1,0.36,-0.02,0.64,0.11,10.08,0,0,0,0.29,0.45,9.79,12.1055698394775
,0,0.02,-0.02,-0.29,0.96,0.19,0.37,0.08,-0.23,0.26,10.23,0,0,0,0.25,0.47,9.79,12.1213841438293
,0,0.02,-0.02,-0.29,0.96,0.23,0.39,0.13,-0.29,0.41,9.84,0,0,0,0.18,0.51,9.79,12.1397221088409
,0,0.03,-0.01,-0.29,0.96,0.2,0.47,0.21,0.31,0.03,10.08,0,0,0,0.08,0.54,9.79,12.1561968326569
,0,0.03,-0.01,-0.29,0.96,0.01,0.75,0.15,-0.06,0.61,9.55,0,0,0,0.01,0.54,9.79,12.1718208789825
,0,0.03,-0,-0.29,0.96,-0.09,0.84,0.22,-0.26,1.75,8.52,0,0,0,-0.12,0.53,9.79,12.189728975296
,0,0.03,0.01,-0.28,0.96,0.05,0.71,0.31,0.47,1.51,9.24,0,0,0,-0.29,0.55,9.78,12.2062067985535
,0,0.03,0.01,-0.28,0.96,0.11,0.97,0.36,1.87,0.19,10.78,0,0,0,-0.38,0.56,9.78,12.2216200828552
,0,0.04,0.02,-0.28,0.96,0.1,1.11,0.19,0.56,-0.24,10.85,0,0,0,-0.64,0.58,9.76,12.2398734092712
,0,0.04,0.04,-0.27,0.96,0.25,1.92,0.38,-0.37,-0.33,12.21,0,0,0,-0.98,0.62,9.73,12.2559440135956
,0,0.05,0.05,-0.27,0.96,-0.32,1.94,0.52,0.95,0.97,12.88,0,0,0,-1.15,0.59,9.71,12.271918296814
,0,0.05,0.07,-0.26,0.96,-0.33,1.75,0.64,4,-1.15,9.96,0,0,0,-1.49,0.55,9.67,12.290322303772
,0,0.06,0.1,-0.26,0.96,0.04,2.71,0.5,4.74,-1.07,10.59,0,0,0,-2.09,0.6,9.56,12.3067715167999
,0,0.07,0.12,-0.26,0.96,0.28,4.9,0.02,-0.85,-2.07,10.35,0,0,0,-2.54,0.62,9.44,12.3218483924866
,0,0.09,0.17,-0.26,0.95,0.83,5.38,-0.16,6.55,4.58,12.88,0,0,0,-3.59,0.83,9.08,12.3403034210205
,0,0.13,0.24,-0.26,0.93,2.2,7.36,-0.61,6.46,0.36,11.95,0,0,0,-4.96,1.21,8.36,12.3566188812256
,0,0.16,0.27,-0.26,0.91,3.08,9.11,-1.05,3.22,0.07,6,0,0,0,-5.69,1.4,7.85,12.3721778392792
,0,0.2,0.35,-0.28,0.87,3.22,9.93,-1.73,-5.26,-3.91,39.52,0,0,0,-7.04,1.54,6.63,12.3900418281555
,0,0.2,0.38,-0.31,0.85,2.63,4.74,-4.44,-15.2,4.65,39.52,0,0,0,-7.53,1.03,6.18,12.4064297676086
,0,0.19,0.38,-0.32,0.85,-1.08,-1.39,-1.77,-7.32,6.21,13.1,0,0,0,-7.46,0.83,6.3,12.4222741127014
,0,0.17,0.36,-0.33,0.86,-1.5,-2.49,-0.83,11.8,2.58,3.68,0,0,0,-7.15,0.49,6.68,12.4403653144836
,0,0.15,0.35,-0.34,0.86,-0.92,-1.89,-1.3,4.88,1.6,5.71,0,0,0,-6.89,0.22,6.96,12.4564607143402
,0,0.14,0.34,-0.34,0.86,-0.32,-2.26,-0.95,4.49,3.17,5.81,0,0,0,-6.74,0.14,7.11,12.4717810153961
,0,0.13,0.32,-0.35,0.87,-0.07,-2.39,-0.71,3.24,3.06,9.84,0,0,0,-6.39,0.06,7.43,12.4903891086578
,0,0.12,0.29,-0.36,0.88,0.25,-3.11,-0.24,1.63,2.88,11.02,0,0,0,-5.89,0.09,7.83,12.5068016052246
,0,0.12,0.27,-0.36,0.88,0.38,-3.94,0.18,0.76,2.68,8.56,0,0,0,-5.59,0.13,8.05,12.5222291946411
,0,0.11,0.24,-0.36,0.89,0.4,-4.14,0.37,-0.68,1.34,7.71,0,0,0,-4.92,0.24,8.47,12.5400142669678
,0,0.1,0.2,-0.36,0.91,0.38,-4.24,0.61,-1.21,0.49,8.46,0,0,0,-4.2,0.36,8.85,12.5568332672119
,0,0.09,0.18,-0.36,0.91,0.42,-4.4,0.51,-2.37,-0.52,10.8,0,0,0,-3.82,0.42,9.02,12.5726361274719
,0,0.08,0.13,-0.37,0.92,0.43,-4.53,0.39,-3.12,-0.25,11.54,0,0,0,-3.01,0.51,9.31,12.5907242298126
,0,0.07,0.09,-0.37,0.92,0.39,-4.57,0.19,-3.28,0.22,11.67,0,0,0,-2.17,0.59,9.54,12.6074206829071
,0,0.06,0.07,-0.37,0.92,0.3,-4.45,0.16,-2.87,0.88,12.69,0,0,0,-1.76,0.62,9.62,12.6222949028015
,0,0.05,0.03,-0.37,0.93,0.29,-4.39,0.2,-2.81,1.27,13.35,0,0,0,-0.94,0.68,9.73,12.6407344341278
,0,0.04,-0.01,-0.37,0.93,0.26,-4.27,0.34,-2.63,1.49,13.25,0,0,0,-0.14,0.73,9.77,12.6574335098267
,0,0.03,-0.02,-0.37,0.93,0.02,-3.93,0.52,-3.16,2.51,14.22,0,0,0,0.23,0.73,9.77,12.6722686290741
,0,0.02,-0.06,-0.36,0.93,-0.11,-3.75,0.59,-5.24,3.32,14.12,0,0,0,0.93,0.7,9.73,12.6902847290039
,0,0,-0.09,-0.35,0.93,-0.15,-3.44,0.69,-6.11,4.09,14.05,0,0,0,1.56,0.65,9.65,12.7073955535889
,0,-0,-0.1,-0.35,0.93,-0.18,-2.93,0.91,-8.44,4.89,14.1,0,0,0,1.84,0.62,9.61,12.7229125499725
,0,-0.01,-0.12,-0.34,0.93,-0.11,-2.7,1.01,-12.7,3.53,15.73,0,0,0,2.34,0.57,9.5,12.7412707805634
,0,-0.02,-0.15,-0.33,0.93,0.35,-2.62,1.09,-14.07,3.04,14.28,0,0,0,2.83,0.61,9.36,12.7573912143707
,0,-0.02,-0.16,-0.32,0.93,0.83,-2.2,1.11,-16.78,2.41,5.58,0,0,0,3.04,0.65,9.29,12.7726306915283
,0,-0.02,-0.17,-0.31,0.93,0.92,-1.63,1.2,-16.86,0.53,2.93,0,0,0,3.27,0.76,9.21,12.7908370494843
,0,-0.01,-0.17,-0.3,0.94,1.14,0.14,1.15,-16.51,0.24,3.44,0,0,0,3.17,0.88,9.23,12.8078246116638
,0,-0,-0.16,-0.29,0.94,0.11,1.76,1.14,-22.88,2.2,1.33,0,0,0,3.03,0.85,9.28,12.8229732513428
,0,-0.02,-0.15,-0.28,0.95,-0.8,2.08,1.4,1.18,-6.18,14.5,0,0,0,2.81,0.48,9.38,12.8405578136444
,0,-0.03,-0.14,-0.28,0.95,-1.76,0.41,1.19,7.23,-6.82,3.32,0,0,0,2.68,0.2,9.42,12.8580152988434
,0,-0.02,-0.12,-0.28,0.95,-0.14,3.37,-0.03,9.01,-13.72,1.52,0,0,0,2.37,0.19,9.51,12.8730020523071
,0,-0.01,-0.08,-0.29,0.95,0.34,5.02,-0.88,-3.22,1.32,16.65,0,0,0,1.62,0.3,9.66,12.8908767700195
,0,-0,-0.07,-0.3,0.95,0.17,1.91,-1.04,2.52,1.32,11.88,0,0,0,1.23,0.37,9.72,12.907829284668
,0,0,-0.06,-0.3,0.95,0.18,2.1,-0.05,-1.41,3.73,20.46,0,0,0,1.03,0.39,9.74,12.9228553771973
,0,0.01,-0.05,-0.3,0.95,-0.08,1.27,-0.16,-2.15,3.72,6.49,0,0,0,0.87,0.4,9.75,12.9408993721008
,0,0.01,-0.04,-0.29,0.95,0.01,0.36,0.44,6.97,3.14,8.17,0,0,0,0.72,0.38,9.77,12.9577312469482
,0,0.01,-0.04,-0.29,0.96,-0.11,0.44,0.24,1.3,1.9,11.14,0,0,0,0.68,0.37,9.77,12.9727969169617
,0,0.01,-0.04,-0.29,0.96,-0.2,0.23,0.29,1.47,-0.66,9.83,0,0,0,0.66,0.33,9.77,12.9906046390533
,0,0.01,-0.04,-0.29,0.96,-0.12,0.09,-0.03,1.42,1.12,10.77,0,0,0,0.64,0.31,9.78,13.0079879760742
,0,0.01,-0.04,-0.29,0.96,-0.15,0.01,-0.07,1.11,-0.63,10.28,0,0,0,0.64,0.3,9.78,13.0232427120209
,0,0.01,-0.03,-0.29,0.96,-0.03,0.07,-0.07,0.15,-0.54,10.3,0,0,0,0.62,0.29,9.78,13.0409936904907
,0,0.01,-0.03,-0.29,0.96,-0.03,0.1,-0.1,0.04,0.49,10.8,0,0,0,0.6,0.29,9.78,13.0574152469635
,0,0.01,-0.03,-0.29,0.96,0.02,0.09,0.01,-0.95,0.17,10.31,0,0,0,0.59,0.29,9.78,13.0728681087494
,0,0.01,-0.03,-0.29,0.96,0.02,0.06,0.02,-0.03,0.61,10.3,0,0,0,0.58,0.29,9.78,13.0909900665283
,0,0.01,-0.03,-0.29,0.96,0,0.1,-0.04,-0.2,1.18,9.56,0,0,0,0.56,0.29,9.78,13.1078660488129
,0,0.01,-0.03,-0.29,0.96,0.03,0.06,-0.03,0.94,0.36,9.94,0,0,0,0.55,0.29,9.78,13.1226131916046
,0,0.01,-0.03,-0.29,0.96,0.02,0.06,-0.04,1.22,-0.02,9.56,0,0,0,0.54,0.3,9.78,13.1415495872498
,0,0.01,-0.03,-0.29,0.96,0.03,0.06,-0.04,1.32,0.51,10.17,0,0,0,0.53,0.31,9.78,13.1583960056305
,0,0.01,-0.03,-0.29,0.96,0.01,0.04,-0.03,1.76,0.07,9.7,0,0,0,0.53,0.31,9.78,13.1735162734985
,0,0.01,-0.03,-0.29,0.96,0.02,0.04,-0.03,1.16,0.07,10.02,0,0,0,0.52,0.31,9.78,13.1913757324219
,0,0.01,-0.03,-0.3,0.95,-0,0.06,-0.04,1.2,0.41,9.55,0,0,0,0.5,0.32,9.78,13.2086234092712
,0,0.01,-0.03,-0.3,0.95,0.02,0.09,-0.05,0.56,0.38,9.86,0,0,0,0.49,0.32,9.78,13.2233095169067
,0,0.01,-0.03,-0.3,0.95,0.03,0.12,-0.05,-0.08,0.16,9.61,0,0,0,0.48,0.32,9.78,13.2413663864136
,0,0.01,-0.03,-0.3,0.95,0.04,0.09,-0.04,-0.66,0.45,9.85,0,0,0,0.46,0.33,9.78,13.258752822876
,0,0.01,-0.03,-0.3,0.95,0.03,0.1,-0.03,-0.47,0.26,10.24,0,0,0,0.45,0.33,9.79,13.2736971378326
,0,0.01,-0.03,-0.3,0.95,0.09,0.07,0,0.47,0.3,9.93,0,0,0,0.44,0.36,9.78,13.2916610240936
,0,0.01,-0.03,-0.3,0.95,0.12,0.04,-0.01,0.81,0.17,9.35,0,0,0,0.42,0.37,9.79,13.3090918064117
,0,0.01,-0.03,-0.3,0.95,0.05,0.09,-0.05,0.95,0.66,9.58,0,0,0,0.42,0.38,9.79,13.3246200084686
,0,0.01,-0.03,-0.3,0.95,0.16,0.06,-0.01,2.39,0.64,9.48,0,0,0,0.4,0.4,9.78,13.341899394989
,0,0.01,-0.02,-0.3,0.95,0.01,0.14,-0.08,0.91,0.24,9.52,0,0,0,0.37,0.41,9.79,13.3591561317444
,0,0.02,-0.02,-0.3,0.95,0.09,0.22,-0.13,1.61,0.83,9.72,0,0,0,0.35,0.42,9.79,13.3746483325958
,0,0.02,-0.02,-0.3,0.95,0.13,0.25,-0.07,0.15,0.08,9.41,0,0,0,0.3,0.45,9.79,13.391711473465
,0,0.02,-0.02,-0.3,0.95,0.33,0.29,0.02,-0.05,-0.27,9.94,0,0,0,0.24,0.51,9.79,13.4094557762146
,0,0.02,-0.02,-0.3,0.95,0.06,0.37,-0.1,-0.28,0.02,9.86,0,0,0,0.21,0.51,9.79,13.4255397319794
,0,0.02,-0.01,-0.3,0.95,-0.11,0.39,-0.07,-0.83,0.44,10.3,0,0,0,0.13,0.5,9.79,13.4431669712067
,0,0.02,-0.01,-0.3,0.95,0.03,0.4,0.06,-0.79,0.05,9.95,0,0,0,0.05,0.51,9.79,13.4594299793243
,0,0.03,-0.01,-0.3,0.95,0.12,0.49,0.15,-0.4,0.52,9.92,0,0,0,0,0.52,9.79,13.4748766422272
,0,0.03,-0,-0.3,0.95,0.25,0.56,0.16,1.15,0.59,9.47,0,0,0,-0.1,0.55,9.79,13.4927344322205
,0,0.03,0,-0.3,0.95,0.05,0.76,0.07,0.82,0.33,10.08,0,0,0,-0.27,0.55,9.78,13.5098140239716
,0,0.03,0.01,-0.29,0.95,-0.08,0.91,0.03,-0.51,1.95,9.16,0,0,0,-0.35,0.54,9.78,13.5249683856964
,0,0.03,0.02,-0.29,0.96,-0.08,0.79,0.12,0.7,-0.1,12.35,0,0,0,-0.52,0.54,9.77,13.5426564216614
,0,0.04,0.03,-0.29,0.96,0.09,0.97,0.33,1.25,0.74,9.85,0,0,0,-0.7,0.56,9.76,13.5599746704102
,0,0.04,0.03,-0.29,0.96,0.09,1.4,0.3,1.68,-0.12,10.26,0,0,0,-0.83,0.57,9.75,13.5756590366364
,0,0.05,0.05,-0.29,0.96,0.17,1.67,0.22,-0.81,0.52,11.71,0,0,0,-1.12,0.59,9.72,13.5924668312073
,0,0.05,0.06,-0.27,0.96,-0.08,1.3,0.78,-0.49,2.28,9.11,0,0,0,-1.35,0.55,9.69,13.6101565361023
,0,0.05,0.07,-0.27,0.96,-0.25,1.68,0.6,1.93,0.56,10.38,0,0,0,-1.5,0.54,9.67,13.6260013580322
,0,0.05,0.09,-0.27,0.96,-0.27,2.48,0.55,6.03,-3.77,9.95,0,0,0,-2.04,0.52,9.57,13.6426284313202
,0,0.07,0.14,-0.26,0.95,0.72,4.54,-0.17,0.82,1.16,12.11,0,0,0,-2.92,0.62,9.33,13.6601500511169
,0,0.08,0.16,-0.26,0.95,0.83,5.44,-0.22,5.88,2.9,14.97,0,0,0,-3.41,0.68,9.16,13.6764056682587
,0,0.11,0.22,-0.27,0.93,1.42,6.3,-0.46,5.02,0.81,12.27,0,0,0,-4.59,0.94,8.61,13.6929793357849
,0,0.16,0.29,-0.27,0.9,2.74,8.51,-0.96,4.67,-0.37,6.47,0,0,0,-6,1.26,7.64,13.710337638855
,0,0.18,0.33,-0.28,0.88,3.34,9.41,-2.45,-1.18,-4.1,16.56,0,0,0,-6.7,1.35,7.02,13.7262539863586
,0,0.21,0.38,-0.31,0.84,3.46,8.03,-3.45,-14.25,9.47,39.12,0,0,0,-7.6,1.22,6.07,13.743011713028
,0,0.19,0.38,-0.34,0.84,-0.16,0.63,-4.47,-14.14,10.16,26.65,0,0,0,-7.6,0.66,6.15,13.759955406189
,0,0.18,0.37,-0.34,0.84,-1.25,-3.04,-0.52,10.05,0.71,7.48,0,0,0,-7.42,0.55,6.38,13.7760949134827
,0,0.16,0.36,-0.35,0.85,-1.03,-3.19,-1.39,2.25,1.9,6.3,0,0,0,-7.07,0.25,6.78,13.7927734851837
,0,0.15,0.34,-0.36,0.86,-0.48,-2.59,-1.17,3.6,3.02,5.45,0,0,0,-6.9,0.14,6.96,13.810492515564
,0,0.14,0.33,-0.37,0.86,-0.2,-2.88,-0.72,2.65,2.86,7.44,0,0,0,-6.51,0,7.32,13.8263185024261
,0,0.13,0.3,-0.37,0.87,-0.11,-3.13,-0.49,2.07,1.83,8.13,0,0,0,-6.04,-0.06,7.71,13.8432033061981
,0,0.11,0.27,-0.38,0.88,0.12,-3.55,-0.2,0.89,1.29,9.27,0,0,0,-5.48,-0.05,8.12,13.8607046604156
,0,0.11,0.25,-0.38,0.88,0.33,-4.01,-0.02,0.09,1.04,9.47,0,0,0,-5.16,-0.02,8.33,13.8777477741241
,0,0.1,0.21,-0.39,0.89,0.38,-4.3,0.12,-1.07,0.23,10.03,0,0,0,-4.46,0.04,8.73,13.8934752941132
,0,0.08,0.17,-0.39,0.9,0.37,-4.35,0.15,-1.81,-0.01,10.76,0,0,0,-3.7,0.12,9.08,13.9107694625854
,0,0.08,0.15,-0.39,0.9,0.38,-4.54,0.07,-2.08,-0.57,11,0,0,0,-3.29,0.15,9.23,13.9278833866119
,0,0.06,0.11,-0.4,0.91,0.37,-4.54,-0.01,-2.34,0.39,12.41,0,0,0,-2.47,0.22,9.48,13.9437754154205
,0,0.05,0.07,-0.4,0.91,0.33,-4.55,0.02,-2.35,0.52,12.93,0,0,0,-1.63,0.29,9.66,13.961092710495
,0,0.04,0.05,-0.4,0.92,0.31,-4.58,0.21,-1.96,0.97,13.18,0,0,0,-1.2,0.32,9.72,13.9776363372803
,0,0.02,0.01,-0.4,0.92,0.21,-4.4,0.43,-2.51,1.11,14.44,0,0,0,-0.35,0.37,9.79,13.9939200878143
,0,0.01,-0.03,-0.39,0.92,0.18,-4.33,0.53,-2.93,2.56,13.87,0,0,0,0.45,0.39,9.78,14.0117135047913
,0,0,-0.05,-0.39,0.92,0.03,-4.02,0.82,-4.16,2.95,14.63,0,0,0,0.84,0.39,9.76,14.028653383255
,0,-0.01,-0.08,-0.38,0.92,0.09,-3.68,1.11,-7.89,3.7,15.06,0,0,0,1.55,0.38,9.67,14.0445358753204
,0,-0.02,-0.11,-0.37,0.92,0.13,-3.55,1.26,-9.14,3.29,14.97,0,0,0,2.21,0.36,9.54,14.0616371631622
,0,-0.03,-0.13,-0.36,0.92,0.33,-3.23,1.45,-12.09,2.31,12.93,0,0,0,2.51,0.36,9.47,14.0789828300476
,0,-0.04,-0.15,-0.34,0.93,0.61,-2.56,1.51,-14.54,1.26,8.02,0,0,0,3.02,0.38,9.31,14.094345331192
,0,-0.04,-0.17,-0.33,0.93,0.67,-1.99,1.45,-15.71,0.92,7.31,0,0,0,3.34,0.42,9.2,14.1118323802948
,0,-0.04,-0.17,-0.32,0.93,0.75,-0.6,1.31,-17.15,0.21,4.21,0,0,0,3.4,0.44,9.18,14.1286146640778
,0,-0.03,-0.17,-0.31,0.93,0.78,0.97,1.3,-16.3,0.05,3.14,0,0,0,3.31,0.49,9.21,14.1441125869751
,0,-0.02,-0.15,-0.3,0.94,0.66,1.85,1.05,-17.77,-0.05,3.94,0,0,0,2.93,0.52,9.34,14.1615371704102
,0,-0.02,-0.14,-0.3,0.94,-0.43,2.17,1.35,-7.96,-0.03,11.66,0,0,0,2.74,0.45,9.4,14.1793229579926
,0,-0.03,-0.14,-0.28,0.95,-0.69,0.28,1.93,7.6,-5.78,8.65,0,0,0,2.71,0.15,9.42,14.1953120231628
,0,-0.02,-0.11,-0.28,0.95,-0.13,1.45,0.4,6.8,-13.81,-7.41,0,0,0,2.15,0.16,9.56,14.2120428085327
,0,-0.01,-0.09,-0.28,0.96,0.69,4.51,-0.93,-6.14,-6.07,29.47,0,0,0,1.73,0.24,9.64,14.2298316955566
,0,-0,-0.07,-0.3,0.95,0.27,1.91,-1.23,2,0.85,16.25,0,0,0,1.27,0.36,9.71,14.2456986904144
,0,0.01,-0.05,-0.3,0.95,0.51,1.77,-0.17,-0.62,4.7,18.82,0,0,0,0.98,0.42,9.74,14.2629437446594
,0,0.01,-0.05,-0.3,0.95,-0.06,1,-0.12,-2.33,1.76,10.79,0,0,0,0.89,0.42,9.75,14.2801139354706
,0,0.01,-0.04,-0.3,0.95,-0.05,0.53,0.27,0.35,1.24,13.85,0,0,0,0.79,0.4,9.76,14.2964842319489
,0,0.01,-0.04,-0.29,0.96,-0.04,0.37,0.27,-0.37,-0.25,11.25,0,0,0,0.74,0.39,9.77,14.3131196498871
,0,0.01,-0.04,-0.29,0.96,-0.14,0.31,0.21,-0.25,0.8,10.58,0,0,0,0.71,0.38,9.77,14.3305501937866
,0,0.01,-0.04,-0.29,0.96,-0.16,-0.05,0.13,1.75,0.3,9.58,0,0,0,0.71,0.35,9.77,14.3463544845581
,0,0.01,-0.04,-0.29,0.96,-0.14,0.1,0.06,-0.34,0.76,11.09,0,0,0,0.69,0.32,9.77,14.3636214733124
,0,0,-0.04,-0.29,0.96,-0.17,-0.11,-0.18,1.12,-0.16,10.37,0,0,0,0.7,0.3,9.77,14.3811156749725
,0,0,-0.04,-0.29,0.96,-0.06,0.1,-0.06,-0.29,0.44,10.55,0,0,0,0.69,0.29,9.77,14.3975756168365
,0,0,-0.04,-0.29,0.96,-0.05,0.07,-0.05,0.87,0.21,9.55,0,0,0,0.69,0.29,9.77,14.4137322902679
,0,0,-0.04,-0.29,0.96,-0.02,0.07,0.01,0.7,0.12,10.01,0,0,0,0.68,0.28,9.77,14.43159532547
,0,0,-0.04,-0.29,0.96,-0.04,0.08,-0.03,0.52,1.05,9.69,0,0,0,0.66,0.28,9.77,14.4484179019928
,0,0,-0.04,-0.29,0.96,-0.05,0.07,-0.03,1.59,0.38,8.93,0,0,0,0.65,0.27,9.78,14.4645490646362
,0,0,-0.04,-0.29,0.96,-0.02,0.12,-0.04,1.31,0.46,9.43,0,0,0,0.64,0.27,9.78,14.4814412593842
,0,0,-0.03,-0.29,0.96,-0.01,0.08,-0.02,1.93,-0.19,9.54,0,0,0,0.62,0.27,9.78,14.4986617565155
,0,0,-0.03,-0.29,0.96,0.03,0.11,-0.04,0.72,0.22,9.75,0,0,0,0.6,0.27,9.78,14.5144112110138
,0,0,-0.03,-0.29,0.96,0,0.09,-0.04,1.21,0.09,9.8,0,0,0,0.6,0.27,9.78,14.5315489768982
,0,0,-0.03,-0.29,0.95,-0.02,0.11,-0.03,0.33,0.16,9.78,0,0,0,0.58,0.27,9.78,14.5485248565674
,0,0,-0.03,-0.3,0.95,-0.01,0.11,-0.04,0.82,0.14,9.37,0,0,0,0.56,0.27,9.78,14.5643222332001
,0,0.01,-0.03,-0.3,0.95,0.02,0.12,-0.02,0.24,0.09,9.8,0,0,0,0.55,0.27,9.78,14.5817041397095
,0,0.01,-0.03,-0.3,0.95,0.01,0.1,-0.04,0.45,0.26,9.78,0,0,0,0.53,0.28,9.78,14.5980331897736
,0,0.01,-0.03,-0.3,0.95,0.03,0.08,-0.02,0.62,0.05,9.67,0,0,0,0.51,0.28,9.78,14.614639043808
,0,0.01,-0.03,-0.3,0.95,0.03,0.07,-0.05,1.07,0.43,9.59,0,0,0,0.5,0.28,9.78,14.6317279338837
,0,0.01,-0.03,-0.3,0.95,0.02,0.11,-0.06,1.02,0.31,10.1,0,0,0,0.49,0.29,9.78,14.6483225822449
,0,0.01,-0.03,-0.3,0.95,0.08,0.09,-0.04,1.32,0.26,9.78,0,0,0,0.47,0.31,9.78,14.6643245220184
,0,0.01,-0.03,-0.3,0.95,0.15,0.03,-0.02,1.26,0.07,9.32,0,0,0,0.47,0.33,9.78,14.6816182136536
,0,0.01,-0.03,-0.3,0.95,0.06,0.09,-0.05,1.06,0.35,9.72,0,0,0,0.45,0.34,9.78,14.6981210708618
,0,0.01,-0.03,-0.3,0.95,0.06,0.12,-0.06,0.18,0,9.85,0,0,0,0.43,0.36,9.79,14.7144684791565
,0,0.01,-0.03,-0.3,0.95,0.11,0.13,-0.04,0.24,-0.19,9.74,0,0,0,0.41,0.37,9.79,14.7317366600037
,0,0.01,-0.02,-0.3,0.95,0.11,0.21,-0.08,0.48,0.47,9.32,0,0,0,0.38,0.4,9.79,14.74809217453
,0,0.02,-0.02,-0.3,0.95,0.2,0.32,-0.05,0.36,0.6,9.45,0,0,0,0.31,0.43,9.79,14.7646408081055
,0,0.02,-0.02,-0.3,0.95,0.26,0.41,0.05,-0.11,0.05,10.08,0,0,0,0.27,0.46,9.79,14.7817015647888
,0,0.02,-0.02,-0.3,0.95,0.26,0.52,0.02,0.48,0.12,9.71,0,0,0,0.18,0.51,9.79,14.797203540802
,0,0.02,-0.01,-0.3,0.95,0.12,0.63,0.06,0.24,0.22,10.34,0,0,0,0.07,0.52,9.79,14.8141429424286
,0,0.03,-0.01,-0.3,0.95,0.13,0.71,0.18,-0.39,0.64,9.3,0,0,0,0,0.53,9.79,14.8317325115204
,0,0.03,-0,-0.29,0.96,0.02,0.86,0.25,-0.17,1.13,10.79,0,0,0,-0.15,0.54,9.79,14.8479521274567
,0,0.03,0.01,-0.29,0.96,-0.07,0.78,0.36,0.27,2.01,8.75,0,0,0,-0.3,0.54,9.78,14.8642568588257
,0,0.03,0.01,-0.29,0.96,0.03,1.13,0.57,1.58,0.61,11.14,0,0,0,-0.41,0.54,9.78,14.8817744255066
,0,0.04,0.02,-0.28,0.96,0.1,1.23,0.4,0.45,0,10.53,0,0,0,-0.63,0.57,9.76,14.8975625038147
,0,0.04,0.04,-0.28,0.96,0.23,1.7,0.51,0.22,-0.22,11.4,0,0,0,-0.93,0.61,9.74,14.9145309925079
,0,0.05,0.05,-0.28,0.96,-0.1,1.75,0.42,0.25,1.19,10.83,0,0,0,-1.1,0.6,9.72,14.9318387508392
,0,0.05,0.06,-0.27,0.96,-0.21,1.68,0.92,4.46,-1.14,11,0,0,0,-1.4,0.59,9.68,14.9475264549255
,0,0.05,0.09,-0.26,0.96,-0.41,2.21,0.87,5.1,-1.19,9.89,0,0,0,-1.91,0.58,9.6,14.9646224975586
,0,0.06,0.11,-0.26,0.96,0.45,4.32,0.01,-0.56,-0.98,11.29,0,0,0,-2.31,0.62,9.5,14.9822607040405
,0,0.08,0.15,-0.26,0.95,1.32,5.74,-0.16,3.12,2.87,12.54,0,0,0,-3.29,0.8,9.2,14.9981153011322
,0,0.12,0.21,-0.26,0.94,1.58,6.52,-0.16,4.59,0.17,12.61,0,0,0,-4.52,1.09,8.63,15.0148689746857
,0,0.14,0.25,-0.26,0.92,2.52,8.39,-0.86,2.06,0.24,8.3,0,0,0,-5.21,1.26,8.2,15.0325446128845
,0,0.18,0.33,-0.26,0.89,2.94,9.65,-1.77,1.2,-6.49,24.04,0,0,0,-6.64,1.52,7.04,15.0484676361084
,0,0.22,0.39,-0.28,0.85,2.96,8.76,-2.5,-3.16,-2.21,38.34,0,0,0,-7.68,1.49,5.9,15.065486907959
,0,0.22,0.4,-0.3,0.84,1.56,2.2,-4.14,-15.88,11.19,36.05,0,0,0,-7.86,1.27,5.72,15.0824105739594
,0,0.2,0.39,-0.31,0.84,-1.48,-2.54,-0.6,7.87,0.35,10.2,0,0,0,-7.7,0.84,6,15.0985867977142
,0,0.18,0.38,-0.32,0.85,-1.42,-2.94,-0.95,9.53,1.37,3.72,0,0,0,-7.39,0.53,6.42,15.1154553890228
,0,0.17,0.37,-0.33,0.85,-0.77,-2.34,-1.01,4.25,2.42,6.61,0,0,0,-7.25,0.41,6.58,15.1324155330658
,0,0.15,0.35,-0.34,0.86,-0.31,-2.88,-0.67,3.32,3.01,7.76,0,0,0,-6.88,0.25,6.97,15.1484513282776
,0,0.14,0.32,-0.34,0.87,-0.2,-3.15,-0.45,2.95,2.67,8.32,0,0,0,-6.43,0.19,7.4,15.165301322937
,0,0.13,0.31,-0.35,0.88,0.09,-3.73,-0.06,1.15,1.62,8.42,0,0,0,-6.16,0.19,7.62,15.1827366352081
,0,0.12,0.27,-0.35,0.89,0.32,-4.15,0.2,0.04,1.32,7.9,0,0,0,-5.54,0.25,8.08,15.1981222629547
,0,0.11,0.23,-0.35,0.9,0.36,-4.25,0.29,-0.91,0.87,8.5,0,0,0,-4.85,0.34,8.51,15.215322971344
,0,0.11,0.21,-0.35,0.9,0.33,-4.36,0.4,-1.78,0.34,9.61,0,0,0,-4.48,0.39,8.71,15.232893705368
,0,0.09,0.17,-0.36,0.91,0.3,-4.45,0.34,-3.16,-0.07,12.21,0,0,0,-3.72,0.47,9.06,15.2482824325562
,0,0.08,0.13,-0.36,0.92,0.3,-4.52,0.27,-3.3,0.22,12.44,0,0,0,-2.9,0.53,9.35,15.2656855583191
,0,0.07,0.11,-0.36,0.92,0.22,-4.63,0.21,-3.07,0.56,12.47,0,0,0,-2.48,0.56,9.47,15.2827503681183
,0,0.06,0.07,-0.36,0.93,0.25,-4.57,0.24,-2.96,2.32,13.37,0,0,0,-1.63,0.61,9.65,15.2989137172699
,0,0.05,0.03,-0.36,0.93,0.23,-4.49,0.36,-2.89,2.92,13.63,0,0,0,-0.79,0.66,9.75,15.3153595924377
,0,0.04,0.01,-0.36,0.93,0.18,-4.22,0.77,-3.88,4.65,14.5,0,0,0,-0.38,0.69,9.77,15.3325235843658
,0,0.03,-0.03,-0.35,0.94,0.13,-3.87,1.25,-5.32,5.17,14.97,0,0,0,0.37,0.71,9.77,15.3480739593506
,0,0.01,-0.06,-0.33,0.94,0.06,-3.65,1.49,-7.83,5.67,14.79,0,0,0,1.06,0.68,9.72,15.3655693531036
,0,0.01,-0.08,-0.33,0.94,-0.31,-3.11,1.83,-10.74,3.64,13.77,0,0,0,1.36,0.63,9.69,15.3831853866577
,0,-0,-0.1,-0.31,0.95,-0.21,-2.47,1.69,-15.4,2.3,13.66,0,0,0,1.87,0.53,9.61,15.398143529892
,0,-0.01,-0.12,-0.3,0.95,-0.14,-2.22,1.51,-16.29,0.94,14.68,0,0,0,2.09,0.48,9.56,15.4157779216766
,0,-0.01,-0.13,-0.29,0.95,0.62,-1.89,1.07,-16.3,-1.14,10.32,0,0,0,2.47,0.5,9.47,15.4330396652222
,0,-0,-0.14,-0.28,0.95,1.39,-0.47,0.56,-21.56,2.04,-1.82,0,0,0,2.64,0.72,9.41,15.4477002620697
,0,0.01,-0.14,-0.28,0.95,1.08,0.38,0.84,-28.9,3.29,-2.9,0,0,0,2.61,0.79,9.41,15.4654824733734
,0,0,-0.13,-0.27,0.95,-0.38,1.49,0.64,-15.35,3.13,-8.66,0,0,0,2.39,0.78,9.47,15.4829034805298
,0,-0.01,-0.1,-0.27,0.96,-2.28,1.83,1.05,3.61,-3.55,22.81,0,0,0,1.98,0.37,9.59,15.4982938766479
,0,-0.01,-0.09,-0.26,0.96,-1.24,1.08,0.79,5.05,-5.83,12.63,0,0,0,1.89,0.24,9.61,15.5162074565887
,0,-0.01,-0.08,-0.26,0.96,-0.33,2.67,-0.21,3.3,-9.29,20.08,0,0,0,1.49,0.18,9.68,15.5328273773193
,0,-0,-0.05,-0.28,0.96,0.29,2.82,-2.5,-8.19,0.79,33.54,0,0,0,0.92,0.25,9.75,15.5481259822845
,0,-0,-0.05,-0.3,0.95,0.07,0.66,-2.18,-0.35,-1.81,7.52,0,0,0,0.85,0.28,9.76,15.566002368927
,0,0,-0.04,-0.3,0.95,0.14,0.85,-0.38,4.46,4.37,15.36,0,0,0,0.79,0.27,9.77,15.5830442905426
,0,0,-0.04,-0.3,0.95,-0.02,0.44,0.02,0.8,0.59,11.92,0,0,0,0.65,0.28,9.78,15.597959280014
,0,0.01,-0.03,-0.3,0.95,0.13,0.43,0.22,-1.84,1.47,12.62,0,0,0,0.61,0.29,9.78,15.6158223152161
,0,0.01,-0.04,-0.3,0.95,0.14,-0.39,0.61,2.59,0.34,8.92,0,0,0,0.65,0.31,9.77,15.6330623626709
,0,0.01,-0.04,-0.29,0.96,0.12,-0.23,0.46,1.05,0.4,9.92,0,0,0,0.67,0.32,9.77,15.647999048233
,0,0.01,-0.04,-0.29,0.96,-0.02,0.19,0.12,0.46,-0.22,10.17,0,0,0,0.65,0.32,9.77,15.6657466888428
,0,0.01,-0.04,-0.29,0.96,-0.04,0.06,-0.01,0.21,0.15,10.67,0,0,0,0.63,0.32,9.78,15.6830096244812
,0,0.01,-0.04,-0.29,0.96,-0.03,0.02,-0.04,0.24,0.09,10.12,0,0,0,0.63,0.31,9.78,15.6988990306854
,0,0.01,-0.04,-0.29,0.96,-0.02,-0.03,-0.05,0.19,0.15,10.08,0,0,0,0.64,0.31,9.78,15.7173893451691
,0,0.01,-0.04,-0.29,0.96,0,0,-0.05,0.38,0.35,9.78,0,0,0,0.64,0.31,9.78,15.7342991828918
,0,0.01,-0.04,-0.29,0.96,0.01,0.05,-0.01,1.15,0.63,9.69,0,0,0,0.63,0.32,9.78,15.7486100196838
,0,0.01,-0.03,-0.29,0.96,-0.02,0.07,-0.03,0.9,1.11,9.71,0,0,0,0.62,0.31,9.78,15.7676782608032
,0,0.01,-0.03,-0.29,0.96,-0.03,0.07,-0.02,1.17,0.23,10.06,0,0,0,0.6,0.31,9.78,15.7843475341797
,0,0.01,-0.03,-0.29,0.96,0.03,0.05,-0.01,0.87,0.39,9.61,0,0,0,0.59,0.32,9.78,15.7994074821472
,0,0.01,-0.03,-0.29,0.96,0.02,0.08,-0.01,0.87,0.07,10.18,0,0,0,0.58,0.32,9.78,15.8165600299835
,0,0.01,-0.03,-0.29,0.96,0.01,0.06,-0,0.69,0.22,9.68,0,0,0,0.58,0.32,9.78,15.8329088687897
,0,0.01,-0.03,-0.29,0.96,0,0.07,-0.01,-0.24,0.34,9.94,0,0,0,0.56,0.32,9.78,15.8485889434814
,0,0.01,-0.03,-0.29,0.96,0.06,0.07,0.01,-0.18,0.57,10.16,0,0,0,0.55,0.33,9.78,15.8671822547913
,0,0.01,-0.03,-0.29,0.96,0.07,0.01,0.01,0.9,0.19,9.55,0,0,0,0.55,0.34,9.78,15.883736371994
,0,0.01,-0.03,-0.29,0.96,0,0.08,-0.02,0.47,0.27,10.09,0,0,0,0.53,0.34,9.78,15.8987374305725
,0,0.01,-0.03,-0.29,0.96,0,0.08,-0.01,0.62,0.52,9.65,0,0,0,0.53,0.34,9.78,15.9175500869751
,0,0.01,-0.03,-0.29,0.96,0.06,0.06,-0.01,0.85,0.38,9.66,0,0,0,0.52,0.36,9.78,15.9339573383331
,0,0.01,-0.03,-0.29,0.96,0.04,0.04,-0.01,1.1,0.46,9.71,0,0,0,0.51,0.36,9.78,15.9491527080536
,0,0.01,-0.03,-0.29,0.96,-0.03,0.12,-0.03,0.86,0.19,9.72,0,0,0,0.49,0.36,9.78,15.9675276279449
,0,0.01,-0.03,-0.29,0.96,0.09,0.1,-0.01,0.75,0.44,9.6,0,0,0,0.47,0.37,9.78,15.9839355945587
,0,0.01,-0.03,-0.29,0.96,0.2,0.06,0,1.47,0.01,9.44,0,0,0,0.46,0.4,9.78,15.9989838600159
,0,0.01,-0.03,-0.29,0.96,0.04,0.12,-0.03,0.36,0.62,9.58,0,0,0,0.45,0.4,9.78,16.0180969238281
,0,0.01,-0.03,-0.29,0.96,0.18,0.15,-0.02,0.13,0,9.65,0,0,0,0.42,0.42,9.78,16.0344150066376
,0,0.02,-0.03,-0.29,0.96,0.24,0.12,-0.03,0.79,0.17,9.57,0,0,0,0.39,0.46,9.78,16.0495049953461
,0,0.02,-0.02,-0.29,0.96,0.06,0.31,-0.07,0.51,0.54,9.94,0,0,0,0.36,0.47,9.78,16.06871342659
,0,0.02,-0.02,-0.29,0.96,0.18,0.36,-0.02,0.47,0.39,10.06,0,0,0,0.3,0.49,9.78,16.0848207473755
,0,0.02,-0.02,-0.29,0.96,0.11,0.4,0.06,0.35,0.01,10.09,0,0,0,0.22,0.51,9.79,16.1000831127167
,0,0.02,-0.02,-0.29,0.96,0.03,0.4,0.13,0.37,-0.11,9.78,0,0,0,0.19,0.51,9.79,16.1186997890472
,0,0.02,-0.01,-0.29,0.96,-0.03,0.48,0.17,0.95,0.41,10.19,0,0,0,0.1,0.51,9.79,16.1348705291748
,0,0.03,-0.01,-0.29,0.96,0.09,0.75,0.34,-0.28,0.88,11.41,0,0,0,-0.01,0.52,9.79,16.1502282619476
,0,0.03,0,-0.28,0.96,0.08,0.92,0.68,-0.49,0.49,12.2,0,0,0,-0.09,0.53,9.79,16.1690545082092
,0,0.03,0,-0.28,0.96,0.02,0.81,0.49,0.85,0.89,11.04,0,0,0,-0.23,0.54,9.78,16.1848242282867
,0,0.03,0.01,-0.27,0.96,0.16,1.12,0.77,1.54,0.94,9.83,0,0,0,-0.44,0.57,9.77,16.1998915672302
,0,0.04,0.03,-0.27,0.96,0.08,1.24,0.59,1.36,-0.09,10.49,0,0,0,-0.55,0.58,9.77,16.220192193985
,0,0.04,0.04,-0.27,0.96,0.04,1.85,0.41,1.1,-0.72,10.33,0,0,0,-0.88,0.6,9.74,16.2355737686157
,0,0.05,0.05,-0.26,0.96,-0.2,1.86,0.44,2.19,1.14,9.33,0,0,0,-1.24,0.59,9.7,16.2507891654968
,0,0.05,0.07,-0.25,0.96,-0.39,1.73,0.6,3.29,-1.2,11.29,0,0,0,-1.4,0.56,9.68,16.270304441452
,0,0.05,0.09,-0.25,0.96,-0.15,3.1,0.32,6.54,-1.67,11.03,0,0,0,-1.89,0.51,9.6,16.2857387065887
,0,0.07,0.13,-0.25,0.96,0.55,5.17,-0.2,-0.49,-3.48,12.08,0,0,0,-2.76,0.58,9.38,16.3007757663727
,0,0.09,0.18,-0.25,0.95,0.7,5.61,-0.23,7.74,1.35,15.22,0,0,0,-3.27,0.63,9.22,16.3205540180206
,0,0.11,0.22,-0.25,0.94,2.34,7.69,-0.81,5.3,1.08,11.1,0,0,0,-4.51,0.91,8.65,16.3355576992035
,0,0.15,0.3,-0.26,0.91,2.61,9.94,-1.09,-0.98,-1.03,8.89,0,0,0,-6.04,1.24,7.62,16.350935459137
,0,0.2,0.37,-0.27,0.86,2.88,10.41,-1.53,0.38,-7.37,16.88,0,0,0,-6.79,1.35,6.93,16.3704588413239
,0,0.2,0.39,-0.29,0.85,1.91,4.22,-4.89,-20.32,6.33,35.04,0,0,0,-7.69,1.09,5.97,16.3856410980225
,0,0.18,0.39,-0.32,0.84,-1.42,-2.44,-1.33,2.56,0.92,11.92,0,0,0,-7.63,0.54,6.12,16.4010388851166
,0,0.16,0.37,-0.32,0.85,-1.42,-3.03,-0.53,13.95,3.49,2.77,0,0,0,-7.45,0.42,6.35,16.420684337616
,0,0.15,0.37,-0.33,0.86,-0.8,-1.97,-1.15,0.88,2.51,8.54,0,0,0,-7.14,0.1,6.71,16.4358978271484
,0,0.13,0.35,-0.34,0.86,-0.3,-2.7,-0.74,2.89,2.69,7.86,0,0,0,-6.79,-0.06,7.06,16.4506478309631
,0,0.12,0.32,-0.35,0.87,-0.14,-2.93,-0.52,2.91,2.18,7.72,0,0,0,-6.59,-0.1,7.25,16.471143245697
,0,0.12,0.31,-0.35,0.88,0.1,-3.41,-0.17,0.57,0.45,9.29,0,0,0,-6.11,-0.13,7.66,16.4860520362854
,0,0.1,0.28,-0.35,0.89,0.37,-3.95,0.04,0.05,0.66,7.93,0,0,0,-5.53,-0.08,8.09,16.5013134479523
,0,0.09,0.24,-0.36,0.9,0.41,-4.12,0.13,-0.46,0.69,7.58,0,0,0,-4.86,0,8.51,16.5214805603027
,0,0.09,0.22,-0.36,0.9,0.29,-4.2,0.26,-1.76,-0.72,8.42,0,0,0,-4.51,0.02,8.7,16.5368809700012
,0,0.08,0.18,-0.36,0.91,0.32,-4.21,0.17,-2.17,-1.09,10.34,0,0,0,-3.79,0.09,9.04,16.5526962280273
,0,0.07,0.14,-0.36,0.92,0.36,-4.25,0.08,-2.83,0.36,12.59,0,0,0,-3.03,0.16,9.32,16.5723040103912
,0,0.06,0.12,-0.36,0.92,0.25,-4.37,0.05,-2.92,0.65,12.5,0,0,0,-2.63,0.18,9.44,16.5892820358276
,0,0.05,0.08,-0.37,0.93,0.24,-4.43,0.15,-2.58,1.33,12.24,0,0,0,-1.81,0.23,9.63,16.6070692539215
,0,0.03,0.04,-0.37,0.93,0.31,-4.28,0.35,-2.62,2.38,12.71,0,0,0,-1,0.29,9.75,16.6242926120758
,0,0.02,0,-0.36,0.93,0.28,-4.15,0.5,-2.8,2.88,12.91,0,0,0,-0.23,0.35,9.79,16.6413421630859
,0,0.01,-0.03,-0.35,0.94,0.21,-3.77,0.86,-4.64,5.06,14.28,0,0,0,0.12,0.37,9.79,16.6591577529907
,0,0,-0.05,-0.35,0.94,0.04,-3.48,1.36,-5.91,5.23,13.31,0,0,0,0.8,0.37,9.76,16.6754305362701
,0,-0.01,-0.07,-0.33,0.94,-0.06,-3.21,1.59,-8.5,3.71,14.06,0,0,0,1.39,0.32,9.7,16.6941182613373
,0,-0.02,-0.1,-0.32,0.94,-0.01,-2.67,1.72,-10.96,2.19,16.6,0,0,0,1.89,0.28,9.61,16.7102816104889
,0,-0.02,-0.11,-0.31,0.94,0.38,-2.63,1.54,-15.5,2.37,13.46,0,0,0,2.14,0.28,9.56,16.7260551452637
,0,-0.02,-0.13,-0.29,0.95,0.5,-2.64,1.42,-16.91,0.81,7.2,0,0,0,2.61,0.32,9.44,16.744389295578
,0,-0.02,-0.15,-0.28,0.95,0.74,-1.86,1.21,-19.42,-0.52,2.41,0,0,0,2.88,0.41,9.36,16.7603342533112
,0,-0.02,-0.15,-0.28,0.95,0.87,-0.22,0.83,-22.08,1.21,1.56,0,0,0,2.9,0.47,9.35,16.7760994434357
,0,-0.02,-0.14,-0.27,0.95,0.54,0.4,0.94,-14.33,-2.1,-9.78,0,0,0,2.77,0.47,9.39,16.7941074371338
,0,-0.03,-0.12,-0.26,0.96,-1.21,2.17,1.22,3,-12.09,23.89,0,0,0,2.44,0.13,9.49,16.8103048801422
,0,-0.03,-0.12,-0.26,0.96,-0.44,1.18,0.28,6.1,-3.14,6.34,0,0,0,2.33,0.09,9.52,16.8258972167969
,0,-0.02,-0.09,-0.26,0.96,0.02,1.92,-0.04,-1.7,-1.11,20.3,0,0,0,1.87,0.1,9.62,16.8439538478851
,0,-0.01,-0.07,-0.27,0.96,0.38,3.3,-0.53,-4.2,-2.09,21.21,0,0,0,1.34,0.21,9.71,16.8608043193817
,0,-0,-0.06,-0.28,0.96,0.49,1.64,-1.46,0.88,2.52,16.47,0,0,0,1.18,0.27,9.73,16.8761203289032
,0,0.01,-0.05,-0.28,0.96,0.65,1.57,-0.53,2.57,-1.5,15.66,0,0,0,0.92,0.38,9.75,16.8937289714813
,0,0.01,-0.04,-0.28,0.96,0.38,1.26,-0.22,-3.68,3.83,17.05,0,0,0,0.74,0.43,9.76,16.9101967811584
,0,0.01,-0.04,-0.28,0.96,-0.03,0.48,0.22,-0.64,0.42,12.33,0,0,0,0.69,0.42,9.77,16.9259805679321
,0,0.01,-0.04,-0.28,0.96,0.01,0.59,0.26,-0.84,1.8,11.64,0,0,0,0.62,0.41,9.77,16.9440126419067
,0,0.01,-0.04,-0.27,0.96,-0.11,-0.05,0.48,2.57,-0.31,9.02,0,0,0,0.63,0.39,9.77,16.9600763320923
,0,0.01,-0.04,-0.27,0.96,-0.09,0.19,0.14,1.01,0.11,10.65,0,0,0,0.61,0.38,9.77,16.9756851196289
,0,0.01,-0.03,-0.27,0.96,-0.15,0.13,0.02,0.75,0,10.1,0,0,0,0.59,0.35,9.78,16.9941067695618
,0,0.01,-0.03,-0.28,0.96,-0.12,-0.03,-0.07,0.25,0.32,10.4,0,0,0,0.6,0.33,9.78,17.0106978416443
,0,0.01,-0.03,-0.28,0.96,-0.11,-0.01,-0.13,-0.57,-0.17,11.03,0,0,0,0.6,0.32,9.78,17.0257997512817
,0,0.01,-0.03,-0.28,0.96,-0.07,0.09,-0.05,-0.56,0.35,9.61,0,0,0,0.59,0.31,9.78,17.043995141983
,0,0.01,-0.03,-0.28,0.96,-0.01,0.04,-0.02,-0.48,1.21,9.82,0,0,0,0.58,0.31,9.78,17.0605297088623
,0,0.01,-0.03,-0.28,0.96,-0.01,0.05,-0.03,0.93,0.41,10.08,0,0,0,0.57,0.31,9.78,17.0757970809937
,0,0.01,-0.03,-0.28,0.96,0.01,0.09,-0.02,0.68,0.28,10,0,0,0,0.56,0.31,9.78,17.0939874649048
,0,0.01,-0.03,-0.28,0.96,0.02,0.04,0.02,1.7,0.2,9.65,0,0,0,0.55,0.32,9.78,17.1106989383698
,0,0.01,-0.03,-0.28,0.96,0.04,0.05,0.01,1.52,0.3,9.7,0,0,0,0.55,0.32,9.78,17.1263535022736
,0,0.01,-0.03,-0.28,0.96,0.03,0.06,-0.01,1.35,0.53,9.79,0,0,0,0.54,0.32,9.78,17.1446781158447
,0,0.01,-0.03,-0.28,0.96,0,0.06,-0.03,0.94,0.19,9.76,0,0,0,0.53,0.32,9.78,17.1612703800201
,0,0.01,-0.03,-0.28,0.96,0,0.05,-0.02,0.55,0.16,9.57,0,0,0,0.52,0.32,9.78,17.1766033172607
,0,0.01,-0.03,-0.28,0.96,0.03,0.07,-0.02,-0.07,0.39,9.81,0,0,0,0.51,0.33,9.78,17.1947293281555
,0,0.01,-0.03,-0.28,0.96,0.02,0.05,-0.01,-0.35,0.48,9.77,0,0,0,0.5,0.33,9.78,17.2108583450317
,0,0.01,-0.03,-0.28,0.96,0.05,0.05,-0.01,-0.27,0.19,10.02,0,0,0,0.5,0.34,9.78,17.2261707782745
,0,0.01,-0.03,-0.28,0.96,0.01,0.06,-0.01,-0.52,0.35,9.6,0,0,0,0.49,0.34,9.78,17.2445895671844
,0,0.01,-0.03,-0.28,0.96,0.08,-0.01,0.05,0.8,0.42,9.44,0,0,0,0.48,0.35,9.78,17.2614619731903
,0,0.01,-0.03,-0.28,0.96,0.05,0.06,0.02,0.83,0.83,9.94,0,0,0,0.48,0.36,9.78,17.276093006134
,0,0.01,-0.03,-0.28,0.96,0.13,0.03,0.06,1.66,0.17,9.63,0,0,0,0.47,0.39,9.78,17.2943966388702
,0,0.01,-0.03,-0.28,0.96,0.06,0.06,0.01,1.33,0.34,9.73,0,0,0,0.46,0.39,9.78,17.3113262653351
,0,0.01,-0.03,-0.28,0.96,-0.01,0.06,-0.02,0.91,0.45,9.83,0,0,0,0.45,0.39,9.78,17.3267550468445
,0,0.01,-0.03,-0.28,0.96,0.04,0.05,-0,0.63,0.06,9.74,0,0,0,0.44,0.4,9.78,17.3446390628815
,0,0.01,-0.03,-0.28,0.96,0.09,0.1,0.05,0.22,-0.05,9.85,0,0,0,0.42,0.41,9.78,17.3610062599182
,0,0.02,-0.03,-0.28,0.96,0.09,0.12,-0.01,0.71,0.78,9.54,0,0,0,0.41,0.42,9.78,17.376678943634
,0,0.02,-0.02,-0.28,0.96,0.02,0.15,-0.02,-0.32,0.53,9.88,0,0,0,0.37,0.43,9.78,17.3946590423584
,0,0.02,-0.02,-0.27,0.96,0.07,0.35,0.06,-0.45,0.34,9.87,0,0,0,0.3,0.45,9.79,17.4115512371063
,0,0.02,-0.02,-0.27,0.96,0.16,0.44,0.06,1.1,0.17,10.04,0,0,0,0.26,0.46,9.79,17.4267387390137
,0,0.02,-0.02,-0.27,0.96,0.1,0.45,0.27,0.56,-0.03,10,0,0,0,0.17,0.48,9.79,17.4447286128998
,0,0.02,-0.01,-0.27,0.96,0.03,0.53,0.21,-0.08,0.96,8.1,0,0,0,0.06,0.49,9.79,17.4615156650543
,0,0.02,-0.01,-0.27,0.96,0.06,0.88,0.55,0.94,-0.14,12.43,0,0,0,-0.01,0.49,9.79,17.4768931865692
,0,0.03,0,-0.26,0.96,0.01,0.83,0.36,0.51,1.43,10.45,0,0,0,-0.16,0.5,9.79,17.4951322078705
,0,0.03,0.01,-0.26,0.97,0.01,1.01,0.37,0.75,0.54,12.2,0,0,0,-0.25,0.5,9.79,17.5112013816833
,0,0.03,0.02,-0.26,0.97,0.23,1.09,0.26,1.5,1.18,8.55,0,0,0,-0.48,0.54,9.77,17.5266377925873
,0,0.04,0.03,-0.25,0.97,0.21,1.46,0.42,0.04,-0.02,11.93,0,0,0,-0.62,0.56,9.77,17.5447351932526
,0,0.05,0.05,-0.25,0.97,0.32,1.59,0.1,-0.6,0.49,11.38,0,0,0,-0.93,0.62,9.74,17.561952829361
,0,0.05,0.05,-0.25,0.97,0.14,1.59,0.74,1.01,-1.63,10.3,0,0,0,-1.22,0.67,9.7,17.5764095783234
,0,0.06,0.07,-0.24,0.97,0.07,1.98,1.11,7.28,0.85,8.66,0,0,0,-1.4,0.69,9.68,17.5949201583862
,0,0.08,0.11,-0.24,0.96,0.87,3.95,-0.19,-0.23,-0.19,12.92,0,0,0,-1.99,0.8,9.56,17.61212682724
,0,0.09,0.13,-0.24,0.96,1.52,5.34,-0.13,1.54,-3.42,11.18,0,0,0,-2.93,1.06,9.29,17.6270089149475
,0,0.12,0.19,-0.24,0.94,1.85,5.99,-0.13,2.82,0.15,13.15,0,0,0,-3.46,1.22,9.09,17.6450805664062
,0,0.17,0.26,-0.24,0.92,2.68,8.07,-0.99,0.45,1.96,11,0,0,0,-4.76,1.59,8.42,17.6622822284698
,0,0.2,0.3,-0.24,0.9,3.78,9.74,-0.75,-2.82,-4.49,4.87,0,0,0,-6.23,2.05,7.28,17.6774837970734
,0,0.23,0.37,-0.26,0.86,3.06,9.22,-2.3,-5.29,-0.48,38.75,0,0,0,-6.9,2.11,6.63,17.6952755451202
,0,0.23,0.39,-0.29,0.84,2.67,3.12,-4.41,-15.67,9.69,33.24,0,0,0,-7.67,1.91,5.79,17.7124848365784
,0,0.22,0.38,-0.3,0.85,-1.26,-2.19,-1.85,6.39,2.15,8.11,0,0,0,-7.63,1.35,5.99,17.7271854877472
,0,0.19,0.37,-0.31,0.85,-1.41,-2.76,-1.15,10.9,2.47,3.39,0,0,0,-7.49,1.19,6.21,17.744802236557
,0,0.17,0.35,-0.33,0.86,-1.03,-2.07,-1.4,1.9,2.62,9.06,0,0,0,-7.21,0.83,6.58,17.7621877193451
,0,0.17,0.34,-0.33,0.86,-0.66,-2.79,-1.05,2.49,3.42,9.27,0,0,0,-6.88,0.57,6.95,17.777446269989
,0,0.15,0.32,-0.34,0.87,-0.57,-3.09,-0.79,2.04,3.08,8.53,0,0,0,-6.44,0.41,7.38,17.7951142787933
,0,0.13,0.29,-0.35,0.88,-0.38,-3.64,-0.42,0.95,2.08,6.93,0,0,0,-6.18,0.35,7.6,17.8130338191986
,0,0.13,0.27,-0.35,0.89,-0.07,-3.9,-0.15,0.53,2.42,7.51,0,0,0,-5.6,0.31,8.04,17.8281803131104
,0,0.11,0.24,-0.35,0.9,-0.01,-4,0,0,2.29,8.13,0,0,0,-4.95,0.31,8.45,17.8454554080963
,0,0.1,0.2,-0.36,0.91,-0.04,-4.22,0.24,-1.45,1,9.29,0,0,0,-4.6,0.32,8.65,17.8635938167572
,0,0.09,0.18,-0.36,0.91,0.09,-4.45,0.27,-2.58,0.17,10.96,0,0,0,-3.84,0.35,9.01,17.8781201839447
,0,0.08,0.14,-0.36,0.92,0.2,-4.55,0.22,-2.62,0.6,11.31,0,0,0,-3.03,0.4,9.31,17.8958745002747
,0,0.06,0.1,-0.36,0.93,0.17,-4.63,0.15,-2.6,0.89,11.74,0,0,0,-2.61,0.42,9.44,17.9138519763947
,0,0.05,0.08,-0.36,0.93,0.04,-4.61,0.15,-2.17,1.3,11.98,0,0,0,-1.75,0.44,9.63,17.9291791915894
,0,0.04,0.04,-0.36,0.93,0.02,-4.53,0.19,-2.06,2,12.06,0,0,0,-0.91,0.44,9.75,17.9465715885162
,0,0.02,-0,-0.36,0.93,-0.27,-4.17,0.36,-3.02,1.83,13.82,0,0,0,-0.52,0.42,9.78,17.963995218277
,0,0.01,-0.02,-0.36,0.93,-0.34,-3.78,0.43,-3.37,3.72,13.76,0,0,0,0.21,0.35,9.79,17.9800753593445
,0,-0,-0.05,-0.35,0.93,-0.27,-3.6,0.55,-3.49,4.59,14.52,0,0,0,0.87,0.29,9.76,17.9966406822205
,0,-0.01,-0.07,-0.34,0.94,-0.31,-3.07,0.85,-8.14,4.69,17.95,0,0,0,1.44,0.22,9.69,18.0139832496643
,0,-0.02,-0.09,-0.34,0.94,0.04,-3.01,1.07,-11.04,3.7,18.09,0,0,0,1.73,0.21,9.65,18.030416727066
,0,-0.03,-0.12,-0.33,0.94,0.43,-3.06,1.07,-14.94,3.23,13.53,0,0,0,2.31,0.28,9.52,18.0468492507935
,0,-0.03,-0.15,-0.32,0.94,1.08,-3.05,1.05,-16.24,2.4,9.91,0,0,0,2.85,0.44,9.37,18.0641279220581
,0,-0.02,-0.16,-0.31,0.94,1.57,-2.35,1.07,-17.02,0.02,3.57,0,0,0,3.07,0.55,9.29,18.0804977416992
,0,-0.01,-0.17,-0.3,0.94,1.86,-1.5,1.05,-18.67,2.19,2.31,0,0,0,3.27,0.81,9.2,18.0970969200134
,0,-0,-0.17,-0.28,0.94,1.07,0.18,1.36,-20.11,1.2,0.82,0,0,0,3.17,0.85,9.23,18.1147360801697
,0,-0,-0.16,-0.28,0.95,-0.2,1.99,1.34,-16.26,3.43,2.46,0,0,0,3.01,0.8,9.29,18.1308267116547
,0,-0.02,-0.15,-0.26,0.95,-1.51,1.34,1.72,11.56,-10.1,-2.11,0,0,0,2.92,0.36,9.35,18.1471862792969
,0,-0.03,-0.14,-0.26,0.96,-1.17,0.05,1.14,12.84,-15.2,-13.77,0,0,0,2.73,0.18,9.41,18.1647148132324
,0,-0.02,-0.12,-0.26,0.96,0.21,4.93,-0.13,-5.53,-10.62,28.64,0,0,0,2.28,0.21,9.53,18.1810653209686
,0,-0,-0.08,-0.28,0.96,0.61,4.6,-1.83,1.66,3.22,12.94,0,0,0,1.59,0.39,9.66,18.1972634792328
,0,0.01,-0.07,-0.28,0.96,0.67,2.15,-0.6,2.39,8.5,18.02,0,0,0,1.18,0.51,9.72,18.2151448726654
,0,0.01,-0.06,-0.28,0.96,-0.08,1.62,-0.09,-5.1,-1.9,20.59,0,0,0,1.02,0.51,9.73,18.2314677238464
,0,0.01,-0.05,-0.28,0.96,-0.41,1.04,0.08,6.37,3.01,9.78,0,0,0,0.94,0.46,9.75,18.2478764057159
,0,0.01,-0.05,-0.28,0.96,-0.01,0.62,0.46,-0.45,-0.19,13.8,0,0,0,0.8,0.45,9.76,18.2645983695984
,0,0.01,-0.04,-0.28,0.96,-0.09,0.23,0.1,0.24,0.74,10.31,0,0,0,0.78,0.44,9.76,18.2817621231079
,0,0.01,-0.04,-0.28,0.96,-0.11,0.16,0.12,1.31,0.02,9.96,0,0,0,0.76,0.42,9.76,18.2976322174072
,0,0.01,-0.04,-0.28,0.96,-0.09,0.11,-0.01,-0.66,-0.12,10.34,0,0,0,0.74,0.4,9.76,18.3150677680969
,0,0.01,-0.04,-0.28,0.96,-0.08,0.01,-0.08,0.37,0.04,10.3,0,0,0,0.74,0.39,9.77,18.3315258026123
,0,0.01,-0.04,-0.28,0.96,-0.01,0.04,-0.06,0,0.52,9.96,0,0,0,0.73,0.39,9.77,18.3475370407104
,0,0.01,-0.04,-0.28,0.96,0.01,0.03,-0.06,0.21,0.13,10.46,0,0,0,0.73,0.39,9.77,18.3647892475128
,0,0.01,-0.04,-0.28,0.96,0.04,0,0,1.15,0.36,9.36,0,0,0,0.73,0.39,9.77,18.381284236908
,0,0.01,-0.04,-0.28,0.96,0.06,0.07,-0.01,1.14,0.57,9.74,0,0,0,0.71,0.4,9.77,18.3983175754547
,0,0.01,-0.04,-0.28,0.96,0.02,0.08,-0.01,1.72,0.27,9.68,0,0,0,0.69,0.41,9.77,18.4157717227936
,0,0.01,-0.04,-0.28,0.96,0.03,0.11,-0.01,1.57,0.18,10.15,0,0,0,0.68,0.41,9.77,18.4325840473175
,0,0.01,-0.04,-0.28,0.96,0.05,0.09,0.01,1.09,0.34,10.14,0,0,0,0.67,0.42,9.77,18.4477903842926
,0,0.01,-0.04,-0.28,0.96,0.04,0.06,0.01,1.19,0.39,9.74,0,0,0,0.65,0.42,9.77,18.4653060436249
,0,0.01,-0.04,-0.28,0.96,0.04,0.09,-0.01,0.23,0.63,9.64,0,0,0,0.65,0.43,9.77,18.4821317195892
,0,0.01,-0.04,-0.28,0.96,0.03,0.11,-0.01,0.15,0.54,10.02,0,0,0,0.63,0.43,9.77,18.4979870319366
,0,0.01,-0.04,-0.28,0.96,0.02,0.08,-0.01,-0.07,0.53,9.79,0,0,0,0.62,0.43,9.77,18.5159738063812
,0,0.01,-0.04,-0.28,0.96,0.03,0.06,0.01,0.17,0.33,9.92,0,0,0,0.61,0.44,9.77,18.532199382782
,0,0.01,-0.04,-0.28,0.96,0.05,0.04,0.02,0.43,0.62,9.75,0,0,0,0.6,0.45,9.77,18.5483088493347
,0,0.01,-0.04,-0.28,0.96,0.02,0.02,0.01,0.43,0.56,9.94,0,0,0,0.6,0.45,9.77,18.5662140846252
,0,0.01,-0.04,-0.28,0.96,0.02,-0.02,0.03,1.27,0.38,9.8,0,0,0,0.6,0.45,9.77,18.583126783371
,0,0.01,-0.04,-0.28,0.96,0,0.03,0.01,1.36,0.38,9.56,0,0,0,0.6,0.45,9.77,18.5979146957397
,0,0.01,-0.04,-0.28,0.96,-0.02,0.02,0.03,1.58,0.55,9.63,0,0,0,0.59,0.45,9.77,18.6160380840302
,0,0.01,-0.04,-0.28,0.96,0,0.04,0.04,1.22,0.5,9.63,0,0,0,0.59,0.45,9.77,18.6320261955261
,0,0.01,-0.03,-0.28,0.96,-0,0.05,0.05,0.68,0.48,10.05,0,0,0,0.57,0.45,9.77,18.6483180522919
,0,0.01,-0.03,-0.28,0.96,-0.03,0.06,0.06,0.74,0.62,9.6,0,0,0,0.57,0.44,9.77,18.6654148101807
,0,0.01,-0.03,-0.28,0.96,-0.04,0.09,0.03,-0.18,0.71,9.8,0,0,0,0.56,0.44,9.78,18.6823546886444
,0,0.01,-0.03,-0.27,0.96,-0.06,0.14,0.02,-0.07,0.63,10.08,0,0,0,0.53,0.43,9.78,18.6982469558716
,0,0.02,-0.03,-0.27,0.96,0.13,0.13,0.16,0.4,0.06,9.73,0,0,0,0.52,0.44,9.78,18.715993642807
,0,0.02,-0.03,-0.27,0.96,0.1,0.17,0.04,0.83,0.44,9.51,0,0,0,0.49,0.47,9.78,18.7323446273804
,0,0.02,-0.03,-0.27,0.96,0.03,0.25,-0.01,0.71,0.09,10.11,0,0,0,0.43,0.48,9.78,18.7481107711792
,0,0.02,-0.02,-0.27,0.96,0.12,0.41,0.03,0.55,-0.04,9.72,0,0,0,0.4,0.49,9.78,18.7658805847168
,0,0.02,-0.02,-0.27,0.96,0.09,0.51,0.14,0.61,0.08,9.96,0,0,0,0.3,0.51,9.78,18.7833139896393
,0,0.02,-0.02,-0.27,0.96,0.01,0.5,0.29,0.24,0.65,7.86,0,0,0,0.21,0.51,9.79,18.7987294197083
,0,0.02,-0.01,-0.27,0.96,0.01,0.64,0.29,2.4,-0.2,12.97,0,0,0,0.15,0.51,9.79,18.8159959316254
,0,0.03,-0.01,-0.27,0.96,0.05,0.71,0.17,0.27,2.24,8.02,0,0,0,0.01,0.52,9.79,18.8330149650574
,0,0.03,0,-0.26,0.97,0.14,1.01,0.47,0.49,1.16,9.69,0,0,0,-0.16,0.55,9.78,18.8485479354858
,0,0.03,0.01,-0.26,0.97,0.25,1.16,0.19,1.2,0.81,9.45,0,0,0,-0.27,0.57,9.78,18.8662436008453
,0,0.04,0.02,-0.26,0.97,0.24,1.47,0.06,-0.78,1.28,10.66,0,0,0,-0.52,0.62,9.77,18.8827154636383
,0,0.04,0.03,-0.26,0.96,0.37,1.4,0.06,-0.25,0.38,9.89,0,0,0,-0.79,0.69,9.74,18.898398399353
,0,0.05,0.04,-0.25,0.97,0.28,1.51,0.4,1.36,-1.14,11.94,0,0,0,-0.93,0.72,9.73,18.9165873527527
,0,0.05,0.05,-0.25,0.97,0.5,1.96,0.9,5.75,-2.92,10.47,0,0,0,-1.2,0.79,9.7,18.9336597919464
,0,0.07,0.07,-0.24,0.96,1.17,2.75,0.37,10.26,-5.36,9.4,0,0,0,-1.71,1.02,9.6,18.9491181373596
,0,0.1,0.11,-0.24,0.96,1.61,3.82,-0.21,-0.65,-0.65,10.83,0,0,0,-2.06,1.16,9.51,18.9665565490723
,0,0.13,0.13,-0.24,0.95,3.68,5.69,-0.13,4.02,-0.48,11.83,0,0,0,-3.04,1.74,9.15,18.9844632148743
,0,0.18,0.18,-0.24,0.94,4.16,6.79,-0.34,2.83,-0.25,11.04,0,0,0,-4.21,2.43,8.51,18.9993996620178
,0,0.25,0.25,-0.24,0.9,5.36,8.67,-0.54,2.98,-1.65,7.46,0,0,0,-4.92,2.83,7.99,19.0174837112427
,0,0.27,0.28,-0.25,0.89,3.57,7.82,-1.87,0.3,3.05,13.75,0,0,0,-6.22,3.34,6.8,19.0343308448792
,0,0.29,0.32,-0.27,0.86,1.36,2.04,-3.46,-13.3,14.88,38.69,0,0,0,-6.89,3.22,6.18,19.0501217842102
,0,0.26,0.32,-0.28,0.87,-2.03,-0.66,-2.15,-14.59,12.74,25.73,0,0,0,-6.79,2.78,6.49,19.0675995349884
,0,0.25,0.31,-0.28,0.87,-1.69,-2.06,-0.66,6,-1.54,4.5,0,0,0,-6.68,2.63,6.67,19.0853638648987
,0,0.23,0.3,-0.29,0.88,-1.62,-2.18,-1.21,3.73,0.02,5.53,0,0,0,-6.46,2.27,7.01,19.1005353927612
,0,0.21,0.29,-0.3,0.89,-1.52,-2.17,-1.27,4.13,1.09,5.8,0,0,0,-6.21,1.91,7.34,19.1182825565338
,0,0.2,0.28,-0.3,0.89,-1.48,-2.46,-1.05,3.25,3.88,9.51,0,0,0,-6.05,1.74,7.51,19.1355865001678
,0,0.17,0.26,-0.31,0.9,-1.42,-3.12,-0.67,2.47,3.85,9.91,0,0,0,-5.63,1.44,7.89,19.1513469219208
,0,0.15,0.23,-0.32,0.91,-1.28,-3.46,-0.51,1.83,3.71,8.28,0,0,0,-5.08,1.21,8.29,19.1682081222534
,0,0.14,0.22,-0.32,0.91,-0.99,-3.79,-0.21,1.16,4.01,7,0,0,0,-4.78,1.12,8.48,19.1858220100403
,0,0.12,0.19,-0.32,0.92,-0.84,-3.94,0.07,-0.26,3.8,9.87,0,0,0,-4.13,0.97,8.83,19.2021441459656
,0,0.1,0.15,-0.32,0.93,-0.76,-4.1,0.16,-0.73,3.51,10.65,0,0,0,-3.39,0.86,9.15,19.2188277244568
,0,0.09,0.13,-0.32,0.93,-0.55,-4.45,0.24,-1.43,2.79,11.24,0,0,0,-2.99,0.82,9.3,19.2359900474548
,0,0.07,0.09,-0.33,0.94,-0.28,-4.65,0.27,-1.98,2.79,12.25,0,0,0,-2.15,0.77,9.53,19.2521462440491
,0,0.06,0.05,-0.33,0.94,-0.2,-4.69,0.3,-2.17,3.04,12.66,0,0,0,-1.27,0.75,9.69,19.2689573764801
,0,0.05,0.03,-0.32,0.94,-0.17,-4.72,0.46,-2.25,3.53,12.9,0,0,0,-0.82,0.73,9.74,19.286449432373
,0,0.03,-0.01,-0.32,0.95,-0.19,-4.48,0.7,-2.24,3.62,13.08,0,0,0,0.04,0.7,9.78,19.302107334137
,0,0.02,-0.05,-0.31,0.95,-0.2,-4.3,0.81,-3.37,3.71,14.39,0,0,0,0.85,0.66,9.74,19.3190286159515
,0,0.01,-0.07,-0.31,0.95,-0.12,-3.99,1.04,-4.84,3.96,14.26,0,0,0,1.23,0.64,9.7,19.3364577293396
,0,-0,-0.1,-0.3,0.95,-0.08,-3.46,1.28,-8.19,3.88,13.83,0,0,0,1.92,0.58,9.59,19.3525745868683
,0,-0.01,-0.13,-0.29,0.95,-0.12,-3.12,1.37,-9.51,3.67,14.4,0,0,0,2.49,0.5,9.47,19.3690786361694
,0,-0.02,-0.14,-0.28,0.95,-0.19,-2.57,1.32,-11.29,2.16,16.24,0,0,0,2.73,0.44,9.4,19.3867409229279
,0,-0.03,-0.16,-0.27,0.95,0.08,-2.5,0.99,-16.18,0.88,13.57,0,0,0,3.19,0.38,9.26,19.4027245044708
,0,-0.03,-0.19,-0.26,0.95,0.31,-2.33,0.76,-16.83,0.22,10.99,0,0,0,3.58,0.43,9.11,19.4198248386383
,0,-0.03,-0.19,-0.26,0.95,1.03,-1.3,0.39,-15.91,-0.3,2.2,0,0,0,3.69,0.51,9.06,19.4366111755371
,0,-0.01,-0.19,-0.26,0.95,0.92,0.95,-0.03,-18.95,-0.97,0.18,0,0,0,3.63,0.69,9.08,19.4526305198669
,0,-0.01,-0.18,-0.26,0.95,0.17,1.71,0.07,-23.4,0.62,0.73,0,0,0,3.34,0.62,9.19,19.4693746566772
,0,-0.02,-0.17,-0.25,0.95,-1.93,1.1,0.99,-0.71,-5.62,9.45,0,0,0,3.24,0.41,9.24,19.4868583679199
,0,-0.04,-0.16,-0.25,0.95,-1.34,0.73,-0.04,4.63,0.64,4.74,0,0,0,3.11,0.12,9.29,19.5022184848785
,0,-0.03,-0.13,-0.26,0.96,-0.6,1.76,-0.33,18.23,-3.07,-2.99,0,0,0,2.53,0.1,9.47,19.5195806026459
,0,-0.02,-0.11,-0.26,0.96,0.52,4.62,-1.11,-11.65,-3.54,30.77,0,0,0,2.1,0.18,9.57,19.536449432373
,0,-0.01,-0.09,-0.28,0.96,0.35,1.71,-0.92,1.1,2.81,19.58,0,0,0,1.73,0.28,9.64,19.5520596504211
,0,-0.01,-0.08,-0.28,0.96,0.36,1.33,-0.21,-1.01,2.91,15.9,0,0,0,1.52,0.33,9.68,19.5695459842682
,0,-0,-0.08,-0.28,0.96,-0.06,0.76,-0.03,-0.43,0.42,9.97,0,0,0,1.45,0.32,9.69,19.5868899822235
,0,-0,-0.07,-0.28,0.96,0.1,0.4,0.33,0.76,0.43,12.23,0,0,0,1.38,0.33,9.7,19.6019701957703
,0,-0,-0.07,-0.27,0.96,0.04,0.26,0.28,0.29,0.85,10.36,0,0,0,1.33,0.32,9.7,19.6195390224457
,0,-0,-0.07,-0.27,0.96,-0.05,0.15,0.23,0.65,0.49,9.39,0,0,0,1.32,0.31,9.71,19.6371998786926
,0,-0,-0.07,-0.27,0.96,-0.1,0.21,0.07,0.52,1.36,11.09,0,0,0,1.29,0.3,9.71,19.6519067287445
,0,-0,-0.07,-0.27,0.96,-0.12,0.02,0.03,0.11,-0.21,10.04,0,0,0,1.29,0.29,9.71,19.6693851947784
,0,-0,-0.07,-0.27,0.96,-0.12,-0.05,-0.09,-0.27,0.48,10.19,0,0,0,1.3,0.27,9.71,19.686723947525
,0,-0.01,-0.07,-0.27,0.96,-0.09,0.05,-0.06,-0.04,0.39,10.18,0,0,0,1.3,0.25,9.71,19.7015335559845
,0,-0.01,-0.07,-0.27,0.96,-0.1,0.05,-0.05,0.33,-0.07,10.51,0,0,0,1.29,0.24,9.71,19.7194867134094
,0,-0.01,-0.07,-0.27,0.96,-0.02,0.06,0.01,0.92,0.53,9.89,0,0,0,1.29,0.23,9.71,19.7368233203888
,0,-0.01,-0.07,-0.27,0.96,-0.01,0.07,-0,1.89,0.45,9.52,0,0,0,1.27,0.23,9.72,19.7518644332886
,0,-0.01,-0.06,-0.27,0.96,0,0.09,0.01,2.09,0.36,9.78,0,0,0,1.26,0.23,9.72,19.769294500351
,0,-0.01,-0.06,-0.27,0.96,-0.03,0.1,0,1.86,0.18,9.62,0,0,0,1.24,0.22,9.72,19.7867622375488
,0,-0.01,-0.06,-0.27,0.96,0.01,0.1,-0,1.48,0.08,9.55,0,0,0,1.22,0.22,9.72,19.8019096851349
,0,-0.01,-0.06,-0.27,0.96,0.01,0.11,-0.01,0.33,0.54,10.24,0,0,0,1.21,0.22,9.72,19.8196420669556
,0,-0.01,-0.06,-0.27,0.96,0.01,0.1,-0.01,0.59,0.28,9.66,0,0,0,1.19,0.23,9.73,19.8371825218201
,0,-0.01,-0.06,-0.27,0.96,0,0.11,0,-0.53,0.36,9.95,0,0,0,1.17,0.23,9.73,19.8522908687592
,0,-0,-0.06,-0.27,0.96,0.01,0.07,-0.01,0.16,0.42,9.96,0,0,0,1.16,0.23,9.73,19.8693199157715
,0,-0,-0.06,-0.27,0.96,0.02,0.07,0,0.04,0.52,10.14,0,0,0,1.15,0.23,9.73,19.8866050243378
,0,-0,-0.06,-0.27,0.96,0,0.03,-0,0.98,0.5,9.99,0,0,0,1.15,0.23,9.73,19.9028310775757
,0,-0,-0.06,-0.27,0.96,0.01,-0.03,0.01,1.45,0.41,9.51,0,0,0,1.15,0.23,9.73,19.9201531410217
,0,-0,-0.06,-0.27,0.96,-0.02,0.01,-0.02,1.64,0.57,9.59,0,0,0,1.15,0.23,9.73,19.9375243186951
,0,-0,-0.06,-0.27,0.96,-0.03,0.01,-0.03,1.94,0.63,9.08,0,0,0,1.15,0.23,9.73,19.9520819187164
,0,-0,-0.06,-0.27,0.96,-0.04,0.08,-0.02,1.66,0.26,9.83,0,0,0,1.14,0.22,9.73,19.9699716567993
,0,-0.01,-0.06,-0.27,0.96,-0.06,0.07,-0.06,1.12,0.48,9.29,0,0,0,1.13,0.22,9.73,19.9866676330566
,0,-0,-0.06,-0.27,0.96,-0.02,0.12,-0.03,0.09,0.78,9.69,0,0,0,1.1,0.23,9.74,20.001936674118
,0,-0,-0.06,-0.27,0.96,0.21,0.09,0.04,0.89,-0.15,9.92,0,0,0,1.09,0.25,9.74,20.0198726654053
,0,-0,-0.06,-0.27,0.96,-0.03,0.11,-0.06,0.36,0.62,9.76,0,0,0,1.08,0.25,9.74,20.0369729995728
,0,-0,-0.06,-0.27,0.96,0,0.15,-0.03,-0.28,0.34,9.91,0,0,0,1.05,0.27,9.74,20.0526316165924
,0,0,-0.06,-0.27,0.96,0.29,0.11,0.07,0.56,0.08,9.72,0,0,0,1.04,0.3,9.74,20.0698776245117
,0,0,-0.05,-0.27,0.96,0.2,0.16,-0.01,0.76,-0.12,9.94,0,0,0,1.01,0.34,9.74,20.0871624946594
,0,0,-0.05,-0.27,0.96,0.17,0.25,-0.05,1.63,0.35,10.15,0,0,0,0.95,0.36,9.75,20.102432012558
,0,0.01,-0.05,-0.27,0.96,0,0.37,0.07,1.32,0.16,10.58,0,0,0,0.92,0.36,9.75,20.1212177276611
,0,0.01,-0.05,-0.27,0.96,-0.05,0.44,0.09,0.2,-0.04,9.76,0,0,0,0.84,0.37,9.76,20.1372857093811
,0,0.01,-0.04,-0.27,0.96,-0.01,0.5,0.08,0.34,0.38,9.97,0,0,0,0.73,0.36,9.77,20.1528005599976
,0,0.01,-0.03,-0.27,0.96,-0.01,0.69,0.16,0.76,1.22,10.16,0,0,0,0.66,0.36,9.77,20.1712861061096
,0,0.01,-0.03,-0.27,0.96,0.02,0.74,0.4,-0.53,1.63,9.25,0,0,0,0.53,0.36,9.78,20.1878848075867
,0,0.01,-0.02,-0.26,0.96,0.14,0.75,0.6,0.97,0.51,10.39,0,0,0,0.38,0.38,9.79,20.2030441761017
,0,0.02,-0.01,-0.26,0.97,0.18,0.96,0.62,0.86,0.46,9.37,0,0,0,0.29,0.4,9.79,20.2211644649506
,0,0.02,-0.01,-0.25,0.97,0.16,1.41,0.51,1.02,0.18,10.61,0,0,0,0.05,0.43,9.79,20.2379438877106
,0,0.03,0.01,-0.25,0.97,0.28,1.65,0.68,2.07,-1.25,9.47,0,0,0,-0.23,0.46,9.79,20.2529554367065
,0,0.03,0.02,-0.24,0.97,0.33,1.95,0.4,-0.63,1.17,9.58,0,0,0,-0.41,0.5,9.78,20.271497964859
,0,0.04,0.03,-0.24,0.97,0.26,1.67,0.71,2.72,0.54,9.48,0,0,0,-0.73,0.55,9.76,20.2877833843231
,0,0.05,0.05,-0.23,0.97,0.29,2.13,0.81,7.18,0.89,9.48,0,0,0,-1.17,0.64,9.71,20.3033604621887
,0,0.07,0.09,-0.23,0.97,1.16,4.04,-0.12,11,-6.59,10.59,0,0,0,-1.55,0.75,9.65,20.3222823143005
,0,0.09,0.11,-0.23,0.96,2.26,5.34,-0.11,2.28,-0.17,11.17,0,0,0,-2.51,1.13,9.41,20.3388123512268
,0,0.13,0.17,-0.23,0.95,2.59,6.04,-0.2,3.5,0.59,12.28,0,0,0,-3.69,1.61,8.93,20.353474855423
,0,0.18,0.24,-0.24,0.93,3.49,8.52,-0.92,3.47,1.3,8.07,0,0,0,-4.43,1.87,8.54,20.3722906112671
,0,0.2,0.28,-0.24,0.91,3.8,9.35,-0.7,-3.8,-0.88,7.15,0,0,0,-5.86,2.34,7.49,20.388822555542
,0,0.24,0.34,-0.25,0.87,2.61,6.37,-3.07,-10.23,2.26,39.52,0,0,0,-7,2.37,6.43,20.4038653373718
,0,0.23,0.36,-0.29,0.86,1.83,2.26,-4.48,-15.47,7.82,38.85,0,0,0,-7.24,2.17,6.24,20.4223864078522
,0,0.21,0.35,-0.29,0.87,-1.78,-2.79,-1.44,9.13,0.12,10.44,0,0,0,-7.11,1.62,6.54,20.4390389919281
,0,0.19,0.33,-0.3,0.87,-1.57,-2.82,-1.48,4.47,2.19,5.8,0,0,0,-6.83,1.21,6.92,20.4540135860443
,0,0.17,0.32,-0.32,0.88,-1.37,-2.35,-1.52,3.08,3.1,7.37,0,0,0,-6.68,1.02,7.09,20.4727129936218
,0,0.16,0.31,-0.32,0.88,-0.93,-2.7,-1.07,4.18,4.74,7.21,0,0,0,-6.33,0.72,7.45,20.4887599945068
,0,0.14,0.29,-0.33,0.89,-0.74,-2.93,-0.73,3.44,4.48,8.05,0,0,0,-5.88,0.56,7.82,20.5042455196381
,0,0.12,0.26,-0.33,0.9,-0.39,-3.5,-0.06,2.38,3.26,8.39,0,0,0,-5.61,0.52,8.02,20.5227165222168
,0,0.12,0.24,-0.33,0.9,-0.1,-4.01,0.4,0.92,2.43,8.65,0,0,0,-4.99,0.53,8.42,20.5384290218353
,0,0.1,0.2,-0.33,0.92,-0.08,-4.18,0.53,-0.74,0.86,9.4,0,0,0,-4.28,0.56,8.8,20.553820848465
,0,0.09,0.16,-0.33,0.93,-0.14,-4.44,0.59,-1.15,0.13,9.85,0,0,0,-3.89,0.58,8.98,20.573014497757
,0,0.08,0.14,-0.33,0.93,-0.1,-4.66,0.41,-2.16,-0.29,10.57,0,0,0,-3.07,0.59,9.29,20.5893213748932
,0,0.07,0.1,-0.33,0.94,-0.11,-4.69,0.3,-2.3,0.7,11.8,0,0,0,-2.22,0.58,9.53,20.6044821739197
,0,0.05,0.06,-0.33,0.94,-0.23,-4.63,0.2,-2.43,0.99,12.42,0,0,0,-1.79,0.56,9.62,20.6238346099854
,0,0.04,0.04,-0.33,0.94,-0.33,-4.58,0.24,-2.05,1.29,12.85,0,0,0,-0.92,0.51,9.74,20.6392712593079
,0,0.02,-0,-0.33,0.94,-0.46,-4.37,0.28,-2.21,0.88,13.14,0,0,0,-0.08,0.43,9.79,20.6548962593079
,0,0,-0.04,-0.33,0.94,-0.46,-4.2,0.26,-2.62,1.54,14.68,0,0,0,0.31,0.38,9.79,20.6741142272949
,0,-0,-0.06,-0.33,0.94,-0.4,-3.91,0.27,-3.24,2.87,15.13,0,0,0,1.06,0.3,9.74,20.6894483566284
,0,-0.02,-0.09,-0.33,0.94,-0.35,-3.47,0.38,-5.51,4.7,13.93,0,0,0,1.74,0.22,9.64,20.705267906189
,0,-0.03,-0.11,-0.32,0.94,-0.28,-3.13,0.47,-6.54,4.8,14.61,0,0,0,2.03,0.19,9.59,20.7248904705048
,0,-0.03,-0.13,-0.32,0.94,0.11,-2.49,0.5,-9.94,4.34,20.86,0,0,0,2.52,0.16,9.47,20.7399959564209
,0,-0.04,-0.15,-0.31,0.94,0.57,-3.17,0.49,-16.93,1.6,15.47,0,0,0,3.05,0.22,9.31,20.7546391487122
,0,-0.04,-0.18,-0.3,0.93,1.01,-3.31,0.47,-16.9,0.23,9.71,0,0,0,3.35,0.3,9.21,20.7747294902802
,0,-0.03,-0.2,-0.3,0.93,1.66,-1.89,0.45,-18.62,1.28,1.46,0,0,0,3.77,0.55,9.03,20.7904074192047
,0,-0.03,-0.2,-0.29,0.93,0.61,0.36,0.8,-21.43,1.63,0.91,0,0,0,3.81,0.66,9.01,20.8052575588226
,0,-0.03,-0.18,-0.29,0.94,0.1,1.45,0.93,-24.2,-0.49,-0.85,0,0,0,3.69,0.64,9.06,20.8249709606171
,0,-0.03,-0.17,-0.28,0.94,-2.31,2.02,1.21,-0.52,-15.4,26.07,0,0,0,3.28,0.29,9.23,20.8406934738159
,0,-0.04,-0.16,-0.28,0.95,-0.73,0.67,0.21,5.47,-3.51,1.26,0,0,0,3.15,0.06,9.28,20.8560423851013
,0,-0.03,-0.13,-0.29,0.95,-0.39,2.36,-0.34,15.72,-6.15,12.42,0,0,0,2.94,0.04,9.35,20.8756663799286
,0,-0.02,-0.11,-0.3,0.95,0.52,3.89,-2.25,-12.88,-2.99,29.73,0,0,0,2.15,0.21,9.56,20.8903000354767
,0,-0.01,-0.09,-0.31,0.95,0.69,1.81,-0.42,-1.05,6.03,16.58,0,0,0,1.83,0.35,9.62,20.9057245254517
,0,-0.01,-0.08,-0.31,0.95,0.29,1.66,-0.09,-0.23,2.62,15.53,0,0,0,1.67,0.38,9.65,20.9258875846863
,0,-0.01,-0.08,-0.31,0.95,-0.47,0.67,0.15,2.32,-0.27,4.91,0,0,0,1.49,0.31,9.68,20.9405996799469
,0,-0.01,-0.07,-0.3,0.95,-0.07,0.71,0.42,-1.83,1.59,13.55,0,0,0,1.4,0.27,9.7,20.9554789066315
,0,-0.01,-0.07,-0.3,0.95,-0.07,0.17,0.59,-0.1,1.06,9.56,0,0,0,1.39,0.25,9.7,20.9761161804199
,0,-0.01,-0.07,-0.3,0.95,-0.14,0.38,0.12,-0.81,1.07,11.66,0,0,0,1.34,0.22,9.71,20.9908525943756
,0,-0.01,-0.07,-0.3,0.95,0.01,-0.06,0.28,1.32,-1.34,10.25,0,0,0,1.33,0.21,9.71,21.0063915252686
,0,-0.01,-0.07,-0.3,0.95,-0.04,0.17,-0.07,-0.63,0.22,10.92,0,0,0,1.3,0.2,9.71,21.0265898704529
,0,-0.01,-0.07,-0.3,0.95,-0.03,0.05,-0.06,0.66,0.41,10.25,0,0,0,1.3,0.2,9.71,21.0412533283234
,0,-0.01,-0.07,-0.3,0.95,0,0.08,-0.04,0.3,0.16,9.11,0,0,0,1.28,0.2,9.71,21.055997133255
,0,-0.01,-0.07,-0.3,0.95,0.04,0.07,-0.05,1.17,0.46,10.63,0,0,0,1.27,0.2,9.72,21.0764524936676
,0,-0.01,-0.07,-0.3,0.95,0.03,0.07,-0,1.71,0.27,10.18,0,0,0,1.26,0.22,9.72,21.0915446281433
,0,-0.01,-0.06,-0.3,0.95,0.02,0.1,-0.02,1.73,0.66,9.88,0,0,0,1.24,0.22,9.72,21.1068909168243
,0,-0.01,-0.06,-0.3,0.95,0.02,0.09,0,1.5,0.26,9.3,0,0,0,1.23,0.23,9.72,21.126443862915
,0,-0.01,-0.06,-0.3,0.95,0.03,0.13,-0.02,0.64,0.69,10.03,0,0,0,1.21,0.23,9.72,21.1412463188171
,0,-0.01,-0.06,-0.3,0.95,0.02,0.08,-0.01,0.68,0.41,9.71,0,0,0,1.2,0.23,9.72,21.1571614742279
,0,-0.01,-0.06,-0.3,0.95,0,0.09,-0.01,0.6,0.12,9.95,0,0,0,1.19,0.23,9.73,21.1763896942139
,0,-0.01,-0.06,-0.3,0.95,0.01,0.08,0,0.04,0.79,9.82,0,0,0,1.18,0.23,9.73,21.1918389797211
,0,-0.01,-0.06,-0.3,0.95,0.05,0.07,0.01,0.69,0.34,9.64,0,0,0,1.16,0.24,9.73,21.2071852684021
,0,-0.01,-0.06,-0.3,0.95,0.02,0.06,0.01,0.83,0.57,9.5,0,0,0,1.15,0.25,9.73,21.2271111011505
,0,-0.01,-0.06,-0.3,0.95,0.04,0.07,0,0.74,0.41,9.94,0,0,0,1.14,0.25,9.73,21.241571187973
,0,-0,-0.06,-0.3,0.95,0.1,0.07,0.01,1.72,0.14,9.39,0,0,0,1.13,0.27,9.73,21.2569375038147
,0,-0,-0.06,-0.3,0.95,0.02,0.09,-0.02,1.5,0.24,9.78,0,0,0,1.12,0.27,9.73,21.2774736881256
,0,-0,-0.06,-0.3,0.95,0.01,0.1,-0.02,0.52,0.54,9.78,0,0,0,1.1,0.27,9.74,21.2929723262787
,0,-0,-0.06,-0.3,0.95,0.07,0.1,0.03,0.62,-0.03,9.71,0,0,0,1.08,0.29,9.74,21.3084278106689
,0,-0,-0.06,-0.3,0.95,0,0.08,-0.01,0.64,0.21,10.09,0,0,0,1.07,0.29,9.74,21.3277430534363
,0,-0,-0.06,-0.3,0.95,0.03,0.06,0.02,-0.01,0.53,9.82,0,0,0,1.06,0.29,9.74,21.3440735340118
,0,-0,-0.06,-0.3,0.95,0.08,0.06,0.02,0.29,0.25,9.73,0,0,0,1.05,0.3,9.74,21.3606543540955
,0,-0,-0.06,-0.3,0.95,0.05,0.03,0.01,1.24,0.42,9.64,0,0,0,1.05,0.31,9.74,21.3782691955566
,0,-0,-0.06,-0.3,0.95,-0,0.04,-0.05,0.84,0.22,9.7,0,0,0,1.04,0.32,9.74,21.3962137699127
,0,0,-0.05,-0.3,0.95,0.06,0.15,-0.08,1.09,0.45,9.38,0,0,0,1.02,0.32,9.74,21.4138288497925
,0,0,-0.05,-0.3,0.95,-0.01,0.21,-0.01,1.13,0.37,9.36,0,0,0,0.98,0.34,9.75,21.430536031723
,0,0,-0.05,-0.3,0.95,-0.05,0.33,0.04,0.57,0.27,9.67,0,0,0,0.92,0.33,9.75,21.4483306407928
,0,0,-0.05,-0.3,0.95,0.02,0.37,0.04,0.59,0.44,10.01,0,0,0,0.84,0.33,9.76,21.4648010730743
,0,0,-0.04,-0.3,0.95,0.13,0.51,-0.04,-0.05,0.78,9.26,0,0,0,0.8,0.35,9.76,21.483405828476
,0,0.01,-0.04,-0.3,0.95,0.05,0.79,0.23,0.44,0.31,10.71,0,0,0,0.67,0.37,9.77,21.4994122982025
,0,0.01,-0.03,-0.3,0.95,-0.04,0.8,0.23,-0.31,0.48,11.21,0,0,0,0.53,0.36,9.78,21.515861749649
,0,0.01,-0.03,-0.29,0.96,-0.01,0.8,0.47,1.41,0.8,10.7,0,0,0,0.46,0.36,9.78,21.5366239547729
,0,0.01,-0.02,-0.29,0.96,0.09,0.96,0.55,1.79,1.21,9.78,0,0,0,0.28,0.36,9.79,21.551162481308
,0,0.02,-0.01,-0.28,0.96,0.18,1.23,0.65,1.68,-0.19,11.31,0,0,0,0.02,0.41,9.79,21.5667827129364
,0,0.03,0.01,-0.28,0.96,0.43,1.88,0.68,0.03,0.16,9.68,0,0,0,-0.15,0.45,9.79,21.5879814624786
,0,0.03,0.02,-0.27,0.96,0.26,2.2,0.81,0.19,-0.37,12.74,0,0,0,-0.53,0.5,9.77,21.6026298999786
,0,0.04,0.04,-0.27,0.96,0.35,2.05,0.62,3.44,-0.91,9.71,0,0,0,-0.95,0.58,9.74,21.6177878379822
,0,0.06,0.07,-0.26,0.96,0.49,2.97,0.33,9.62,-1.23,8.81,0,0,0,-1.23,0.63,9.7,21.6379766464233
,0,0.08,0.1,-0.26,0.96,1.86,5.5,-0.25,1.22,0.59,13.62,0,0,0,-2.2,0.91,9.51,21.6533622741699
,0,0.11,0.15,-0.26,0.95,2.86,6.79,-0.51,1.38,-0.66,13.71,0,0,0,-3.35,1.35,9.11,21.6690194606781
,0,0.17,0.22,-0.27,0.92,3.39,7.75,-0.91,6.6,-0.39,8.6,0,0,0,-4.78,1.89,8.34,21.6889510154724
,0,0.2,0.25,-0.27,0.91,4.48,9.02,-1.05,1.69,-3.15,10.35,0,0,0,-5.5,2.19,7.81,21.7042620182037
,0,0.24,0.31,-0.28,0.87,2.65,6.4,-2.74,-11.21,5.74,39.52,0,0,0,-6.68,2.34,6.77,21.7207169532776
,0,0.23,0.33,-0.31,0.86,1.16,1.91,-3.91,-15.1,9.86,37.15,0,0,0,-6.9,1.81,6.71,21.7389771938324
,0,0.21,0.32,-0.32,0.87,-1.83,-2.72,-1.18,10.88,0,9.2,0,0,0,-6.74,1.61,6.92,21.754097700119
,0,0.19,0.31,-0.33,0.87,-1.49,-2.19,-1.37,4.24,2.9,5.57,0,0,0,-6.43,1.23,7.29,21.7706122398376
,0,0.16,0.29,-0.34,0.88,-1.4,-2.19,-1.3,4.35,3.72,5.85,0,0,0,-6.13,0.89,7.6,21.7893195152283
,0,0.15,0.28,-0.34,0.88,-1.09,-2.45,-0.87,4.26,5.42,8.65,0,0,0,-5.95,0.75,7.75,21.8041353225708
,0,0.14,0.26,-0.35,0.89,-0.74,-3.16,-0.2,3.36,5.16,9.64,0,0,0,-5.5,0.59,8.09,21.8202865123749
,0,0.12,0.23,-0.35,0.9,-0.59,-3.52,0.12,2.22,3.75,8.9,0,0,0,-4.91,0.52,8.46,21.839329957962
,0,0.11,0.21,-0.35,0.9,-0.32,-3.98,0.46,0.12,1.97,8.31,0,0,0,-4.58,0.52,8.65,21.854630947113
,0,0.1,0.18,-0.35,0.91,-0.11,-4.15,0.65,-1.34,0.81,9.42,0,0,0,-3.87,0.54,8.99,21.8704755306244
,0,0.08,0.14,-0.35,0.92,-0.09,-4.21,0.61,-1.79,0.47,10.06,0,0,0,-3.12,0.57,9.27,21.8894453048706
,0,0.08,0.12,-0.35,0.93,-0.09,-4.33,0.46,-2.55,0.21,11.53,0,0,0,-2.72,0.57,9.4,21.9050440788269
,0,0.06,0.08,-0.35,0.93,-0.18,-4.4,0.31,-3.09,0.85,12.23,0,0,0,-1.91,0.56,9.6,21.9213423728943
,0,0.05,0.04,-0.35,0.94,-0.2,-4.36,0.26,-3.14,1.11,12.55,0,0,0,-1.1,0.53,9.72,21.9395861625671
,0,0.04,0.02,-0.35,0.94,-0.14,-4.26,0.31,-3.06,3.08,13.05,0,0,0,-0.69,0.52,9.76,21.954603433609
,0,0.02,-0.01,-0.34,0.94,-0.14,-4.07,0.59,-3.31,4.16,13.34,0,0,0,0.08,0.5,9.79,21.9709570407867
,0,0.01,-0.05,-0.33,0.94,-0.17,-3.91,0.76,-3.85,4.27,13.82,0,0,0,0.82,0.46,9.76,21.9902050495148
,0,0,-0.06,-0.33,0.94,-0.12,-3.7,1.04,-5.07,3.55,15.56,0,0,0,1.17,0.44,9.72,22.0047731399536
,0,-0.01,-0.1,-0.32,0.94,0.04,-3.67,1.1,-6.76,2.52,16.46,0,0,0,1.87,0.41,9.61,22.0211117267609
,0,-0.02,-0.13,-0.31,0.94,0.12,-3.64,1.05,-7.69,2.57,16.33,0,0,0,2.55,0.39,9.45,22.0400702953339
,0,-0.03,-0.15,-0.31,0.94,0.2,-3.61,0.85,-8.74,1.72,13.49,0,0,0,2.89,0.38,9.36,22.0552802085876
,0,-0.03,-0.18,-0.3,0.94,0.45,-3.12,0.55,-10.79,1.25,9.29,0,0,0,3.48,0.41,9.15,22.071763753891
,0,-0.04,-0.2,-0.29,0.93,0.58,-2.71,0.37,-11.64,0.9,8.18,0,0,0,3.92,0.5,8.97,22.0899910926819
,0,-0.03,-0.21,-0.29,0.93,0.81,-1.76,0.06,-13.47,1.21,5.99,0,0,0,4.07,0.57,8.9,22.1048254966736
,0,-0.03,-0.22,-0.29,0.93,0.62,-0.57,-0.05,-14.66,1.26,4.7,0,0,0,4.22,0.69,8.82,22.1214790344238
,0,-0.03,-0.22,-0.29,0.93,0.39,0.04,-0.09,-15.75,1.8,4.05,0,0,0,4.17,0.73,8.84,22.1404011249542
