Header,TimeStamp,QuatX,QuatY,QuatZ,QuatW,GyroX,GyroY,GyroZ,AccelX,AccelY,AccelZ,EulerX,EulerY,EulerZ,GravityX,GravityY,GravityZ,TimeStampGlob
,0,0.26,0.79,-0.14,0.54,0.16,0.86,-0.06,-9.81,1.53,-2.3,0,0,0,-9.02,0.6,-3.78,0.214627981185913
,0,0.26,0.79,-0.14,0.53,0.27,0.97,-0.12,-10.06,1.13,-2.05,0,0,0,-8.99,0.58,-3.86,0.231584310531616
,0,0.26,0.8,-0.14,0.52,0.35,1.04,-0.13,-10.25,0.28,-2.46,0,0,0,-8.91,0.53,-4.05,0.246827602386475
,0,0.27,0.8,-0.14,0.51,0.59,1.22,-0.15,-10.45,-0.16,-2.33,0,0,0,-8.81,0.45,-4.28,0.265048265457153
,0,0.27,0.81,-0.14,0.5,0.97,1.45,-0.14,-10.21,-1.82,-1.78,0,0,0,-8.75,0.4,-4.4,0.281764507293701
,0,0.28,0.81,-0.15,0.49,1.24,1.62,-0.14,-10.66,-2.99,-1.67,0,0,0,-8.59,0.25,-4.7,0.296382427215576
,0,0.29,0.82,-0.16,0.46,1.97,2,-0.1,-11.75,-2.86,-0.8,0,0,0,-8.4,0.03,-5.05,0.31459379196167
,0,0.3,0.82,-0.17,0.45,2.47,2.25,-0.07,-12.93,-1,-1.21,0,0,0,-8.29,-0.09,-5.23,0.331759214401245
,0,0.31,0.83,-0.18,0.43,2.47,2.25,-0.07,-12.35,0.68,-2.72,0,0,0,-8.04,-0.36,-5.59,0.346767425537109
,0,0.32,0.84,-0.19,0.4,2.31,2.42,-0.19,-12.56,0.77,-2.57,0,0,0,-7.77,-0.64,-5.94,0.364820957183838
,0,0.33,0.84,-0.2,0.39,1.48,2.5,-0.5,-11.99,1.5,-4.23,0,0,0,-7.62,-0.77,-6.12,0.381741285324097
,0,0.33,0.85,-0.2,0.36,1.17,2.49,-0.55,-11.16,2.14,-6.2,0,0,0,-7.3,-1,-6.46,0.396867990493774
,0,0.33,0.86,-0.2,0.34,0.85,2.5,-0.57,-10.95,2.07,-6.58,0,0,0,-6.97,-1.17,-6.79,0.415273666381836
,0,0.34,0.86,-0.2,0.33,-0.07,2.28,-0.49,-10.86,1.65,-7.11,0,0,0,-6.81,-1.2,-6.94,0.432173252105713
,0,0.34,0.87,-0.19,0.31,-0.39,2.18,-0.46,-9.93,-0.14,-6.3,0,0,0,-6.5,-1.23,-7.23,0.446907043457031
,0,0.33,0.88,-0.18,0.29,-0.67,1.98,-0.41,-9.71,-0.31,-4.71,0,0,0,-6.23,-1.17,-7.47,0.465395927429199
,0,0.34,0.88,-0.18,0.29,-0.77,1.27,-0.24,-8.66,-0.4,-2.12,0,0,0,-6.13,-1.13,-7.56,0.482249975204468
,0,0.33,0.88,-0.17,0.28,-0.34,0.5,-0.03,-6.54,-0.51,-1.94,0,0,0,-6.03,-1.07,-7.65,0.497683525085449
,0,0.33,0.88,-0.17,0.29,-0.09,0.11,0.02,-5.85,-0.65,-2.23,0,0,0,-6.04,-1.07,-7.64,0.515133142471313
,0,0.33,0.88,-0.17,0.29,0.23,-0.54,0.05,-5.3,-0.3,-2.68,0,0,0,-6.08,-1.08,-7.61,0.532524824142456
,0,0.33,0.88,-0.18,0.29,0.39,-1.16,0.09,-5.07,-0.26,-2.63,0,0,0,-6.23,-1.12,-7.48,0.547927618026733
,0,0.33,0.87,-0.19,0.31,0.43,-1.46,0.13,-5.21,-0.26,-3.01,0,0,0,-6.46,-1.17,-7.27,0.565919637680054
,0,0.33,0.87,-0.19,0.32,0.44,-2.04,0.22,-5.55,-0.04,-3.35,0,0,0,-6.61,-1.18,-7.14,0.582829713821411
,0,0.33,0.86,-0.2,0.34,0.37,-2.56,0.37,-6.08,0.33,-3.89,0,0,0,-6.95,-1.19,-6.81,0.597566604614258
,0,0.33,0.85,-0.21,0.36,0.25,-2.78,0.46,-6.19,0.28,-4.14,0,0,0,-7.32,-1.15,-6.41,0.615524291992188
,0,0.33,0.84,-0.21,0.37,-0.01,-3.13,0.59,-7.2,-0.39,-4.92,0,0,0,-7.52,-1.1,-6.18,0.633007287979126
,0,0.33,0.83,-0.22,0.4,-0.17,-3.43,0.7,-7.71,-1.09,-5.14,0,0,0,-7.92,-0.99,-5.68,0.648482799530029
,0,0.32,0.81,-0.23,0.43,-0.15,-3.55,0.73,-8.39,-1.07,-5.57,0,0,0,-8.31,-0.86,-5.12,0.665727376937866
,0,0.32,0.8,-0.23,0.45,-0.01,-3.74,0.74,-9.07,-0.85,-5.9,0,0,0,-8.5,-0.8,-4.81,0.683871984481812
,0,0.32,0.78,-0.24,0.48,0.05,-3.88,0.75,-9.7,0,-6.33,0,0,0,-8.84,-0.67,-4.17,0.699414253234863
,0,0.32,0.76,-0.25,0.51,0.03,-3.93,0.76,-9.84,0.4,-6.4,0,0,0,-9.15,-0.54,-3.48,0.716061592102051
,0,0.31,0.75,-0.25,0.53,-0.15,-3.98,0.8,-10.18,0.39,-6.6,0,0,0,-9.28,-0.46,-3.13,0.733611583709717
,0,0.31,0.73,-0.26,0.56,-0.41,-3.98,0.83,-10.71,0.09,-6.51,0,0,0,-9.5,-0.3,-2.4,0.749021530151367
,0,0.3,0.7,-0.26,0.59,-0.52,-3.94,0.83,-10.87,0.01,-6.36,0,0,0,-9.65,-0.12,-1.68,0.766063213348389
,0,0.3,0.69,-0.26,0.6,-0.65,-3.77,0.86,-10.81,-0.16,-6.16,0,0,0,-9.71,-0.03,-1.33,0.783960103988647
,0,0.29,0.67,-0.26,0.63,-0.62,-3.53,0.87,-10.19,-0.31,-6.41,0,0,0,-9.78,0.14,-0.65,0.799723386764526
,0,0.28,0.65,-0.26,0.66,-0.62,-3.37,0.86,-9.73,-0.34,-7.36,0,0,0,-9.8,0.3,-0.02,0.815981149673462
,0,0.28,0.64,-0.26,0.67,-0.58,-3.02,0.82,-8.85,-0.68,-8,0,0,0,-9.79,0.38,0.26,0.833789825439453
,0,0.28,0.62,-0.26,0.69,-0.38,-2.31,0.7,-7.67,-0.98,-7.21,0,0,0,-9.76,0.52,0.74,0.849724531173706
,0,0.27,0.61,-0.26,0.7,-0.25,-1.88,0.62,-6.9,-0.28,-6.53,0,0,0,-9.72,0.62,1.05,0.866368770599365
,0,0.27,0.61,-0.26,0.7,-0.09,-1,0.44,-6.53,0.02,-6.4,0,0,0,-9.71,0.66,1.15,0.88397479057312
,0,0.27,0.6,-0.26,0.7,-0.04,-0.14,0.25,-6.45,1.15,-6.77,0,0,0,-9.7,0.72,1.21,0.899736404418945
,0,0.27,0.61,-0.26,0.7,-0.11,0.28,0.15,-8.86,1.57,-2.96,0,0,0,-9.71,0.73,1.13,0.916857957839966
,0,0.28,0.61,-0.25,0.7,-0.22,0.99,-0.08,-15.51,1.59,6.9,0,0,0,-9.72,0.72,1.03,0.9337477684021
,0,0.28,0.61,-0.25,0.7,-0.03,0.43,0.18,-10.12,0.38,4.34,0,0,0,-9.73,0.74,0.92,0.950240135192871
,0,0.27,0.62,-0.25,0.69,-0.71,0.48,0.09,-11.05,-3.92,1.44,0,0,0,-9.74,0.72,0.83,0.966671705245972
,0,0.27,0.62,-0.24,0.69,-0.85,0.79,-0.23,-11.58,-3.7,0.52,0,0,0,-9.75,0.69,0.76,0.983988046646118
,0,0.27,0.63,-0.24,0.69,-0.4,1.23,-0.11,-11.78,-0.5,0.59,0,0,0,-9.76,0.66,0.55,0.999421119689941
,0,0.27,0.64,-0.23,0.68,-0.23,1.25,-0.07,-9.75,3.19,-1.62,0,0,0,-9.77,0.65,0.32,1.01648855209351
,0,0.27,0.65,-0.23,0.67,-0.42,1.3,-0.03,-9.49,3.95,-2.19,0,0,0,-9.78,0.65,0.19,1.03411436080933
,0,0.27,0.66,-0.22,0.67,-1.25,1.32,-0.1,-9.46,2.81,-2.07,0,0,0,-9.78,0.63,-0.03,1.0504105091095
,0,0.26,0.67,-0.21,0.67,-1.62,1.33,-0.14,-9.47,-0.34,-0.72,0,0,0,-9.78,0.61,-0.26,1.06659865379333
,0,0.25,0.68,-0.2,0.66,-1.52,1.2,-0.07,-8.6,-2.38,-2.02,0,0,0,-9.78,0.61,-0.36,1.08356189727783
,0,0.25,0.68,-0.2,0.66,-0.44,1.09,0.01,-9.68,-2.98,-1.52,0,0,0,-9.77,0.61,-0.57,1.09989738464355
,0,0.26,0.69,-0.2,0.65,0.25,1.06,0.1,-10.45,0.05,-1.37,0,0,0,-9.75,0.63,-0.77,1.1169068813324
,0,0.27,0.69,-0.2,0.64,1.04,0.96,0.2,-10.38,1.11,-1.54,0,0,0,-9.74,0.64,-0.87,1.13382148742676
,0,0.27,0.69,-0.2,0.64,0.51,0.82,0.2,-9.78,2.12,-1.8,0,0,0,-9.72,0.67,-1.04,1.1497700214386
,0,0.27,0.7,-0.19,0.63,0.05,0.77,0.2,-9.96,1.56,-1.42,0,0,0,-9.7,0.7,-1.18,1.16700267791748
,0,0.26,0.71,-0.18,0.63,-0.73,0.76,0.16,-9.89,1.48,-1.61,0,0,0,-9.69,0.73,-1.25,1.18456959724426
,0,0.26,0.71,-0.18,0.63,-1.05,0.7,0.17,-9.61,0.92,-2.12,0,0,0,-9.67,0.78,-1.37,1.19998908042908
,0,0.26,0.71,-0.17,0.63,-0.97,0.67,0.17,-10.14,0.52,-2.11,0,0,0,-9.65,0.84,-1.48,1.21702027320862
,0,0.26,0.72,-0.16,0.63,-0.46,0.62,0.17,-9.97,0.53,-2.32,0,0,0,-9.64,0.86,-1.53,1.23470115661621
,0,0.26,0.72,-0.16,0.63,0.04,0.61,0.17,-10.2,0.7,-1.89,0,0,0,-9.62,0.9,-1.64,1.25022530555725
,0,0.26,0.72,-0.16,0.62,0.22,0.61,0.15,-9.61,1.6,-2.55,0,0,0,-9.6,0.92,-1.76,1.26682829856873
,0,0.26,0.73,-0.16,0.62,0.27,0.58,0.13,-9.81,1.23,-2.33,0,0,0,-9.59,0.92,-1.82,1.28416109085083
,0,0.26,0.73,-0.16,0.61,0.34,0.52,0.11,-10.01,0.14,-2.38,0,0,0,-9.56,0.93,-1.92,1.30019736289978
,0,0.27,0.73,-0.16,0.61,0.48,0.49,0.09,-9.88,0.46,-2.35,0,0,0,-9.55,0.93,-2.02,1.31694984436035
,0,0.27,0.73,-0.16,0.61,0.68,0.43,0.1,-9.5,0.94,-2.57,0,0,0,-9.54,0.93,-2.06,1.33411240577698
,0,0.28,0.73,-0.16,0.6,0.68,0.36,0.11,-9.5,1.1,-2.35,0,0,0,-9.52,0.92,-2.15,1.35002493858337
,0,0.28,0.73,-0.17,0.6,0.63,0.34,0.11,-9.33,1.07,-2.26,0,0,0,-9.5,0.91,-2.22,1.36679029464722
,0,0.29,0.73,-0.17,0.6,0.53,0.33,0.09,-9.36,0.91,-2.1,0,0,0,-9.49,0.91,-2.25,1.38472247123718
,0,0.29,0.73,-0.17,0.59,0.46,0.31,0.09,-9.22,1.42,-2.24,0,0,0,-9.48,0.91,-2.32,1.402104139328
,0,0.29,0.73,-0.17,0.59,0.45,0.3,0.09,-9.3,1.47,-2.27,0,0,0,-9.46,0.9,-2.38,1.41780519485474
,0,0.29,0.73,-0.17,0.59,0.43,0.31,0.08,-9.37,1.4,-2.19,0,0,0,-9.45,0.9,-2.42,1.43542456626892
,0,0.3,0.73,-0.17,0.59,0.43,0.35,0.05,-9.31,1.46,-2.26,0,0,0,-9.44,0.89,-2.49,1.45154023170471
,0,0.3,0.74,-0.17,0.58,0.42,0.37,0.04,-9.42,1.53,-2.2,0,0,0,-9.42,0.9,-2.55,1.46746850013733
,0,0.3,0.74,-0.17,0.58,0.33,0.41,0.01,-9.5,1.41,-2.05,0,0,0,-9.41,0.9,-2.58,1.48474168777466
,0,0.3,0.74,-0.17,0.58,0.27,0.44,-0.02,-9.16,1.46,-2.35,0,0,0,-9.39,0.91,-2.65,1.50070786476135
,0,0.31,0.74,-0.17,0.57,0.23,0.46,-0.03,-9.46,1.44,-2.23,0,0,0,-9.37,0.92,-2.72,1.51761507987976
,0,0.31,0.74,-0.17,0.57,0.15,0.5,-0.05,-9.36,1.19,-2.3,0,0,0,-9.36,0.92,-2.76,1.53514099121094
,0,0.31,0.74,-0.17,0.57,0.16,0.51,-0.05,-9.28,0.99,-2.88,0,0,0,-9.33,0.9,-2.86,1.55206775665283
,0,0.31,0.74,-0.17,0.56,0.15,0.51,-0.04,-9.57,0.8,-2.82,0,0,0,-9.3,0.88,-2.95,1.56800508499146
,0,0.31,0.75,-0.17,0.56,0.13,0.51,-0.05,-9.46,0.95,-2.93,0,0,0,-9.29,0.88,-3,1.58532929420471
,0,0.31,0.75,-0.17,0.56,0.03,0.5,-0.06,-9.3,0.94,-3.25,0,0,0,-9.26,0.86,-3.09,1.60241317749023
,0,0.31,0.75,-0.17,0.56,-0.07,0.53,-0.07,-9.6,0.61,-3.01,0,0,0,-9.23,0.85,-3.18,1.61835694313049
,0,0.31,0.76,-0.17,0.55,-0.1,0.53,-0.09,-9.63,0.49,-2.87,0,0,0,-9.21,0.85,-3.23,1.63581609725952
,0,0.31,0.76,-0.17,0.55,-0.11,0.54,-0.09,-9.39,0.7,-3.15,0,0,0,-9.18,0.84,-3.32,1.65219044685364
,0,0.31,0.76,-0.17,0.55,-0.09,0.61,-0.1,-9.45,0.71,-2.97,0,0,0,-9.15,0.83,-3.42,1.66778087615967
,0,0.31,0.76,-0.17,0.54,-0.04,0.63,-0.09,-9.46,1.07,-3.04,0,0,0,-9.13,0.82,-3.47,1.68524050712585
,0,0.31,0.77,-0.16,0.54,0.08,0.67,-0.05,-9.34,0.5,-2.97,0,0,0,-9.09,0.81,-3.56,1.70179581642151
,0,0.31,0.77,-0.17,0.53,0.24,0.7,-0.06,-10.12,1.39,-2.21,0,0,0,-9.05,0.77,-3.68,1.71831893920898
,0,0.32,0.77,-0.17,0.53,0.48,0.83,-0.1,-10.18,1.86,-1.92,0,0,0,-9.02,0.75,-3.75,1.73621916770935
,0,0.32,0.77,-0.17,0.52,0.46,0.98,-0.15,-10.26,1.87,-1.6,0,0,0,-8.95,0.69,-3.92,1.75246739387512
,0,0.32,0.78,-0.17,0.51,0.34,1.17,-0.23,-10.66,1.42,-1.68,0,0,0,-8.87,0.62,-4.12,1.76860475540161
,0,0.32,0.79,-0.17,0.5,0.31,1.26,-0.27,-10.89,1.09,-1.94,0,0,0,-8.76,0.55,-4.35,1.78612089157104
,0,0.32,0.79,-0.17,0.49,0.28,1.52,-0.33,-11.23,0.21,-1.63,0,0,0,-8.7,0.51,-4.48,1.80340313911438
,0,0.32,0.8,-0.17,0.48,0.34,1.78,-0.36,-11.84,-0.7,-1.72,0,0,0,-8.55,0.42,-4.77,1.81854343414307
,0,0.33,0.81,-0.17,0.46,0.4,1.89,-0.36,-12.18,-1.14,-1.76,0,0,0,-8.37,0.32,-5.09,1.83574748039246
,0,0.33,0.81,-0.17,0.45,0.69,2.1,-0.32,-12.82,-1.85,-1.64,0,0,0,-8.26,0.26,-5.26,1.85354566574097
,0,0.33,0.82,-0.17,0.43,1.05,2.27,-0.34,-12.96,-1.61,-1.14,0,0,0,-8.03,0.11,-5.62,1.86902666091919
,0,0.34,0.83,-0.17,0.41,1.23,2.36,-0.35,-12.94,-1.16,-1.29,0,0,0,-7.76,-0.08,-5.99,1.88626980781555
,0,0.34,0.84,-0.17,0.39,1.4,2.52,-0.36,-10.7,0.09,-3.7,0,0,0,-7.61,-0.19,-6.17,1.90376377105713
,0,0.35,0.84,-0.18,0.37,1.29,2.7,-0.33,-11.85,2.81,-7.19,0,0,0,-7.28,-0.41,-6.55,1.91993618011475
,0,0.35,0.85,-0.18,0.34,1.05,2.68,-0.33,-10.87,2.41,-7.56,0,0,0,-6.93,-0.57,-6.9,1.93787050247192
,0,0.36,0.86,-0.18,0.33,0.66,2.44,-0.31,-11.52,1.06,-7.93,0,0,0,-6.77,-0.63,-7.06,1.95532512664795
,0,0.36,0.86,-0.17,0.31,0.33,2.1,-0.29,-8,-0.01,-8.17,0,0,0,-6.46,-0.73,-7.34,1.97027778625488
,0,0.36,0.87,-0.17,0.29,0.18,1.94,-0.28,-7.54,0.01,-8.44,0,0,0,-6.19,-0.77,-7.56,1.98732805252075
,0,0.36,0.87,-0.17,0.29,-0.19,1.37,-0.21,-7.5,0.52,-3.59,0,0,0,-6.08,-0.77,-7.64,2.00494360923767
,0,0.36,0.87,-0.16,0.28,-0.37,0.53,-0.05,-6.11,1.07,-2.19,0,0,0,-5.97,-0.73,-7.73,2.02040123939514
,0,0.37,0.87,-0.16,0.28,-0.35,0.11,0.02,-5.74,-0.57,-1.24,0,0,0,-5.99,-0.68,-7.73,2.03714895248413
,0,0.36,0.87,-0.16,0.29,-0.11,-0.67,0.08,-5.45,-0.35,-1.7,0,0,0,-6.04,-0.67,-7.69,2.05500793457031
,0,0.36,0.87,-0.16,0.3,0.09,-1.31,0.07,-5.2,-0.33,-2.6,0,0,0,-6.21,-0.67,-7.55,2.07023763656616
,0,0.36,0.86,-0.17,0.31,0.18,-1.62,0.07,-5.22,-0.25,-2.82,0,0,0,-6.47,-0.69,-7.33,2.0866916179657
,0,0.36,0.86,-0.18,0.32,0.22,-2.18,0.08,-5.41,-0.12,-3.63,0,0,0,-6.62,-0.7,-7.19,2.10479784011841
,0,0.36,0.85,-0.19,0.34,0.23,-2.76,0.14,-5.66,-0.15,-3.4,0,0,0,-6.98,-0.71,-6.84,2.12078595161438
,0,0.35,0.84,-0.2,0.37,0.24,-3.01,0.21,-6.5,0.52,-4.03,0,0,0,-7.38,-0.7,-6.41,2.13760948181152
,0,0.35,0.82,-0.21,0.39,0.1,-3.39,0.38,-6.98,0.37,-4.26,0,0,0,-7.59,-0.68,-6.16,2.15498638153076
,0,0.35,0.81,-0.21,0.41,-0.12,-3.71,0.58,-8.07,-0.46,-5.32,0,0,0,-8.01,-0.59,-5.61,2.17120337486267
,0,0.35,0.8,-0.22,0.44,-0.18,-3.82,0.66,-8.83,-0.87,-5.7,0,0,0,-8.41,-0.47,-5,2.18823933601379
,0,0.34,0.78,-0.23,0.47,-0.13,-3.95,0.72,-9.72,-0.6,-6.01,0,0,0,-8.6,-0.4,-4.68,2.20608615875244
,0,0.34,0.77,-0.24,0.49,-0.1,-4.04,0.7,-10.41,-0.28,-6.24,0,0,0,-8.95,-0.27,-3.99,2.22251105308533
,0,0.33,0.75,-0.24,0.52,-0.2,-4.09,0.6,-10.52,0.48,-6.71,0,0,0,-9.24,-0.15,-3.28,2.23854041099548
,0,0.33,0.72,-0.25,0.55,-0.3,-4.07,0.55,-10.65,0.71,-6.85,0,0,0,-9.36,-0.09,-2.91,2.25648403167725
,0,0.32,0.71,-0.26,0.57,-0.57,-3.99,0.48,-10.15,0.98,-6.86,0,0,0,-9.56,0.02,-2.17,2.27279448509216
,0,0.31,0.69,-0.26,0.6,-0.94,-3.84,0.43,-10.14,0.59,-7.03,0,0,0,-9.69,0.13,-1.45,2.28927087783813
,0,0.3,0.67,-0.26,0.63,-1.08,-3.73,0.43,-10.39,0.64,-7.2,0,0,0,-9.74,0.18,-1.09,2.3064968585968
,0,0.29,0.66,-0.26,0.64,-1.15,-3.41,0.45,-10.32,-0.32,-7.17,0,0,0,-9.79,0.29,-0.43,2.32305908203125
,0,0.28,0.64,-0.26,0.66,-0.96,-2.97,0.48,-9.34,-0.46,-7.08,0,0,0,-9.79,0.38,0.16,2.33882761001587
,0,0.27,0.63,-0.26,0.68,-0.78,-2.7,0.5,-8.5,-0.53,-7.32,0,0,0,-9.78,0.42,0.41,2.35621953010559
,0,0.27,0.62,-0.26,0.69,-0.44,-1.98,0.49,-7.38,-0.31,-7.54,0,0,0,-9.75,0.51,0.83,2.37279534339905
,0,0.27,0.61,-0.26,0.7,-0.09,-1.14,0.45,-5.65,0.11,-8.44,0,0,0,-9.72,0.6,1.09,2.38954877853394
,0,0.27,0.61,-0.26,0.7,0.01,-0.64,0.39,-5.74,0.33,-8.35,0,0,0,-9.71,0.63,1.15,2.40607023239136
,0,0.27,0.61,-0.26,0.7,0.05,0.31,0.17,-6.1,0.44,-8.15,0,0,0,-9.71,0.68,1.14,2.42246556282043
,0,0.27,0.61,-0.25,0.7,0.32,0.93,0.01,-15.07,1.91,4.96,0,0,0,-9.73,0.68,0.98,2.43924307823181
,0,0.28,0.61,-0.25,0.69,0.76,0.62,0.17,-11.61,1.74,7.32,0,0,0,-9.73,0.71,0.91,2.45650553703308
,0,0.28,0.62,-0.25,0.69,-0.24,0.42,0.17,-11.75,-1.06,2.51,0,0,0,-9.74,0.76,0.84,2.47198081016541
,0,0.28,0.62,-0.25,0.69,-0.36,0.72,-0.12,-11.42,-3.6,-0.49,0,0,0,-9.75,0.73,0.73,2.48907017707825
,0,0.28,0.63,-0.25,0.68,-0.24,0.99,-0.09,-11.5,-2.49,-0.95,0,0,0,-9.75,0.72,0.63,2.50634813308716
,0,0.28,0.63,-0.24,0.68,0.03,1.16,-0.05,-10.6,0.7,-0.79,0,0,0,-9.77,0.71,0.42,2.52214479446411
,0,0.28,0.64,-0.24,0.67,-0.05,1.12,0.02,-9.74,3.23,-1.87,0,0,0,-9.77,0.71,0.2,2.5388011932373
,0,0.28,0.65,-0.23,0.67,-0.35,1.06,0,-8.82,3.31,-3.11,0,0,0,-9.78,0.71,0.1,2.55642461776733
,0,0.28,0.65,-0.23,0.67,-1.02,0.99,0,-10.24,0.89,-1.38,0,0,0,-9.78,0.71,-0.06,2.57214426994324
,0,0.28,0.66,-0.22,0.66,-0.51,0.89,0.03,-9.47,-1.26,-1.95,0,0,0,-9.77,0.72,-0.23,2.58891224861145
,0,0.28,0.66,-0.22,0.66,-0.02,0.86,0.03,-10.21,-1.45,-1.25,0,0,0,-9.77,0.72,-0.31,2.60607838630676
,0,0.29,0.67,-0.22,0.65,1,0.78,0.07,-10.01,-0.38,-1.22,0,0,0,-9.76,0.72,-0.47,2.62196636199951
,0,0.3,0.67,-0.23,0.64,1.34,0.73,0.08,-9.62,0.5,-1.09,0,0,0,-9.75,0.72,-0.63,2.63868880271912
,0,0.3,0.67,-0.23,0.64,1.18,0.7,0.1,-9.63,1.14,-1.16,0,0,0,-9.75,0.73,-0.71,2.65598273277283
,0,0.31,0.67,-0.23,0.63,0.4,0.65,0.15,-10.15,2.59,-1.27,0,0,0,-9.74,0.74,-0.84,2.67174601554871
,0,0.31,0.67,-0.23,0.63,-0.54,0.58,0.11,-9.54,1.77,-2.27,0,0,0,-9.72,0.77,-0.95,2.68891596794128
,0,0.3,0.68,-0.22,0.63,-0.76,0.55,0.1,-9.71,1.15,-2.2,0,0,0,-9.72,0.79,-0.99,2.70620656013489
,0,0.3,0.68,-0.22,0.63,-0.65,0.47,0.08,-10.31,0.34,-1.79,0,0,0,-9.71,0.82,-1.07,2.72178077697754
,0,0.3,0.68,-0.21,0.63,-0.4,0.44,0.07,-10.22,0.41,-2.03,0,0,0,-9.7,0.84,-1.15,2.73930215835571
,0,0.3,0.69,-0.21,0.63,0.1,0.41,0.11,-10.25,0.8,-1.81,0,0,0,-9.69,0.85,-1.19,2.75627446174622
,0,0.31,0.69,-0.21,0.62,0.2,0.41,0.07,-10.05,0.74,-1.53,0,0,0,-9.68,0.86,-1.27,2.77127194404602
,0,0.31,0.69,-0.21,0.62,0.19,0.4,0.05,-10,0.55,-1.06,0,0,0,-9.67,0.86,-1.35,2.78906393051147
,0,0.31,0.69,-0.21,0.62,0.25,0.41,0.03,-9.7,1.22,-1.34,0,0,0,-9.66,0.86,-1.39,2.80627226829529
,0,0.31,0.69,-0.21,0.62,0.28,0.41,0.02,-9.49,1.37,-1.26,0,0,0,-9.65,0.86,-1.47,2.82169365882874
,0,0.31,0.69,-0.21,0.61,0.26,0.41,0,-9.23,1.45,-1.23,0,0,0,-9.64,0.85,-1.55,2.83897423744202
,0,0.32,0.7,-0.21,0.61,0.23,0.41,-0.01,-9.26,1.56,-1.06,0,0,0,-9.63,0.85,-1.59,2.856041431427
,0,0.32,0.7,-0.21,0.61,0.05,0.43,-0.03,-9.16,1.71,-1.24,0,0,0,-9.62,0.84,-1.67,2.87191963195801
,0,0.32,0.7,-0.21,0.6,-0.15,0.48,-0.07,-9.15,1.74,-1.42,0,0,0,-9.61,0.83,-1.76,2.88983559608459
,0,0.32,0.7,-0.21,0.6,-0.23,0.49,-0.09,-9.14,1.49,-1.88,0,0,0,-9.6,0.83,-1.8,2.90656709671021
,0,0.31,0.71,-0.21,0.6,-0.24,0.52,-0.12,-9.34,1.32,-1.71,0,0,0,-9.58,0.81,-1.89,2.92146968841553
,0,0.31,0.71,-0.21,0.6,-0.25,0.57,-0.13,-9.44,0.79,-1.69,0,0,0,-9.56,0.8,-1.99,2.9391770362854
,0,0.31,0.71,-0.2,0.59,-0.22,0.58,-0.13,-9.35,0.83,-2.14,0,0,0,-9.55,0.79,-2.04,2.95660901069641
,0,0.31,0.72,-0.2,0.59,-0.23,0.64,-0.14,-9.76,0.8,-2.32,0,0,0,-9.53,0.77,-2.16,2.97174024581909
,0,0.31,0.72,-0.2,0.59,-0.27,0.63,-0.14,-9.73,0.81,-2.4,0,0,0,-9.5,0.76,-2.27,2.98937273025513
,0,0.31,0.73,-0.2,0.58,-0.3,0.61,-0.13,-9.64,0.55,-2.67,0,0,0,-9.49,0.75,-2.32,3.00665903091431
,0,0.31,0.73,-0.19,0.58,-0.26,0.62,-0.12,-9.74,0.13,-2.72,0,0,0,-9.46,0.74,-2.43,3.0214958190918
,0,0.31,0.73,-0.19,0.58,-0.15,0.59,-0.11,-9.56,0.1,-2.6,0,0,0,-9.44,0.73,-2.54,3.03980088233948
,0,0.31,0.74,-0.19,0.57,-0.06,0.59,-0.09,-9.63,0.18,-2.65,0,0,0,-9.42,0.72,-2.59,3.05679845809937
,0,0.31,0.74,-0.19,0.57,0.03,0.6,-0.09,-9.55,0.55,-2.76,0,0,0,-9.39,0.71,-2.7,3.07143068313599
,0,0.31,0.74,-0.19,0.57,0.05,0.61,-0.09,-9.52,1.17,-2.39,0,0,0,-9.36,0.69,-2.82,3.08867740631104
,0,0.31,0.74,-0.19,0.56,0,0.63,-0.11,-9.54,1.34,-2.5,0,0,0,-9.35,0.68,-2.87,3.10617256164551
,0,0.31,0.75,-0.19,0.56,-0.08,0.66,-0.13,-9.58,0.86,-2.77,0,0,0,-9.31,0.66,-2.99,3.12152695655823
,0,0.31,0.75,-0.18,0.55,-0.04,0.68,-0.14,-9.37,0.66,-2.86,0,0,0,-9.27,0.63,-3.11,3.13927292823792
,0,0.31,0.75,-0.18,0.55,-0.02,0.71,-0.14,-9.39,0.34,-3.13,0,0,0,-9.25,0.62,-3.17,3.15619254112244
,0,0.31,0.76,-0.18,0.55,0.07,0.77,-0.15,-9.65,-0.24,-2.74,0,0,0,-9.21,0.59,-3.31,3.17127299308777
,0,0.31,0.76,-0.18,0.54,0.23,0.83,-0.15,-9.38,-0.36,-2.72,0,0,0,-9.15,0.55,-3.45,3.189786195755
,0,0.31,0.77,-0.18,0.53,0.28,0.87,-0.14,-9.13,0.09,-3.01,0,0,0,-9.13,0.53,-3.53,3.2071647644043
,0,0.31,0.77,-0.18,0.53,0.45,1.03,-0.17,-10.25,1.79,-1.76,0,0,0,-9.06,0.47,-3.71,3.22209644317627
,0,0.32,0.77,-0.18,0.52,0.36,1.16,-0.2,-10.17,1.71,-1.92,0,0,0,-8.98,0.41,-3.91,3.23969268798828
,0,0.32,0.78,-0.18,0.5,0.33,1.27,-0.24,-10.98,1.47,-2.1,0,0,0,-8.88,0.34,-4.14,3.25712704658508
,0,0.32,0.78,-0.18,0.5,0.26,1.44,-0.33,-11.31,1.06,-2.62,0,0,0,-8.82,0.3,-4.26,3.27239060401917
,0,0.32,0.79,-0.18,0.49,0.26,1.61,-0.38,-11.74,-0.32,-2.28,0,0,0,-8.69,0.22,-4.53,3.29042983055115
,0,0.32,0.8,-0.18,0.47,0.3,1.69,-0.4,-12.03,-0.58,-2.25,0,0,0,-8.53,0.12,-4.82,3.30683422088623
,0,0.32,0.81,-0.18,0.46,0.43,1.85,-0.36,-12.48,-1.14,-1.55,0,0,0,-8.44,0.07,-4.97,3.32221388816833
,0,0.33,0.81,-0.18,0.44,0.64,2.03,-0.33,-12.76,-0.95,-1.8,0,0,0,-8.25,-0.03,-5.29,3.34070658683777
,0,0.33,0.82,-0.18,0.42,0.75,2.11,-0.34,-12.59,-0.87,-1.76,0,0,0,-8.02,-0.17,-5.63,3.35747313499451
,0,0.33,0.83,-0.18,0.41,0.95,2.33,-0.4,-11.91,0.04,-2.77,0,0,0,-7.89,-0.25,-5.81,3.37263965606689
,0,0.34,0.84,-0.18,0.39,1.1,2.46,-0.44,-12.15,0.63,-3.24,0,0,0,-7.6,-0.44,-6.17,3.3910768032074
,0,0.34,0.85,-0.19,0.36,1.1,2.44,-0.46,-10.9,1.2,-6.49,0,0,0,-7.3,-0.64,-6.51,3.40782856941223
,0,0.34,0.85,-0.19,0.35,0.74,2.46,-0.52,-10.97,1.5,-6.9,0,0,0,-7.13,-0.73,-6.68,3.42292594909668
,0,0.35,0.86,-0.18,0.33,0.29,2.33,-0.39,-9.64,0.54,-7.06,0,0,0,-6.81,-0.83,-6.99,3.44190859794617
,0,0.35,0.87,-0.18,0.31,0.16,2.25,-0.32,-9.21,1.09,-7.08,0,0,0,-6.51,-0.88,-7.27,3.45784831047058
,0,0.35,0.87,-0.17,0.3,-0.2,1.82,-0.2,-9.19,-0.68,-3.38,0,0,0,-6.38,-0.88,-7.39,3.47333383560181
,0,0.35,0.87,-0.17,0.29,-0.08,1.07,0.01,-8.03,0.43,-1.98,0,0,0,-6.2,-0.86,-7.54,3.49159979820251
,0,0.36,0.87,-0.17,0.29,0.21,0.67,0.13,-7.18,0.81,-1.64,0,0,0,-6.13,-0.87,-7.6,3.50861692428589
,0,0.36,0.87,-0.17,0.29,0.1,-0.11,0.2,-6.54,-0.11,-1.49,0,0,0,-6.14,-0.87,-7.59,3.52386164665222
,0,0.36,0.87,-0.17,0.29,0.2,-0.77,0.17,-5.76,0.04,-2.24,0,0,0,-6.23,-0.87,-7.51,3.54162979125977
,0,0.36,0.86,-0.18,0.3,0.25,-1.07,0.17,-5.53,0.21,-2.47,0,0,0,-6.41,-0.88,-7.36,3.55829358100891
,0,0.36,0.86,-0.18,0.31,0.15,-1.65,0.18,-5.54,0.21,-3.33,0,0,0,-6.53,-0.88,-7.25,3.57272744178772
,0,0.36,0.85,-0.19,0.33,0.03,-2.2,0.23,-5.66,0.21,-3.85,0,0,0,-6.82,-0.86,-6.98,3.5920238494873
,0,0.36,0.84,-0.2,0.35,-0.03,-2.44,0.3,-5.95,0.31,-3.96,0,0,0,-7.16,-0.81,-6.64,3.60848307609558
,0,0.35,0.84,-0.2,0.36,-0.14,-2.84,0.46,-6.7,0.26,-4.34,0,0,0,-7.34,-0.77,-6.44,3.62343454360962
,0,0.35,0.83,-0.21,0.39,-0.27,-3.16,0.61,-7.91,-0.27,-5.15,0,0,0,-7.72,-0.66,-6,3.64177060127258
,0,0.35,0.81,-0.21,0.42,-0.31,-3.31,0.68,-8.11,-0.6,-5.31,0,0,0,-8.11,-0.52,-5.48,3.65850687026978
,0,0.35,0.8,-0.22,0.43,-0.18,-3.52,0.74,-8.46,-0.89,-5.5,0,0,0,-8.29,-0.45,-5.2,3.67376017570496
,0,0.35,0.78,-0.23,0.46,0.03,-3.69,0.75,-9.19,-1.01,-5.89,0,0,0,-8.64,-0.33,-4.61,3.69291949272156
,0,0.34,0.76,-0.24,0.49,0.14,-3.76,0.75,-9.56,-0.14,-5.82,0,0,0,-8.96,-0.21,-3.96,3.70855188369751
,0,0.34,0.75,-0.24,0.51,0.29,-3.86,0.76,-9.59,0.18,-5.85,0,0,0,-9.11,-0.16,-3.62,3.72372245788574
,0,0.34,0.73,-0.25,0.54,0.05,-3.94,0.77,-9.96,0.64,-6.11,0,0,0,-9.36,-0.03,-2.92,3.74339866638184
,0,0.33,0.71,-0.26,0.57,-0.16,-3.96,0.76,-10.19,0.55,-6.41,0,0,0,-9.55,0.11,-2.2,3.75892996788025
,0,0.33,0.7,-0.26,0.58,-0.64,-3.86,0.71,-10.35,0.49,-6.4,0,0,0,-9.63,0.19,-1.84,3.7740364074707
,0,0.32,0.67,-0.26,0.61,-1.01,-3.71,0.64,-10.66,-0.03,-6.32,0,0,0,-9.73,0.34,-1.13,3.79317331314087
,0,0.31,0.65,-0.26,0.64,-1.1,-3.62,0.61,-10.44,-0.22,-6.92,0,0,0,-9.78,0.47,-0.45,3.8090705871582
,0,0.3,0.65,-0.26,0.65,-1.21,-3.31,0.53,-10.66,-0.5,-7.16,0,0,0,-9.79,0.53,-0.13,3.82435774803162
,0,0.29,0.63,-0.26,0.67,-1.09,-2.87,0.46,-9.73,-0.49,-6.88,0,0,0,-9.77,0.61,0.44,3.84409761428833
,0,0.28,0.61,-0.26,0.69,-0.98,-2.58,0.44,-7.58,-0.63,-6.96,0,0,0,-9.73,0.68,0.91,3.85893607139587
,0,0.28,0.61,-0.26,0.7,-0.6,-1.84,0.44,-6.92,-0.49,-7.22,0,0,0,-9.71,0.72,1.09,3.87439346313477
,0,0.27,0.6,-0.26,0.71,-0.19,-0.96,0.44,-6.34,0.19,-7.09,0,0,0,-9.68,0.8,1.31,3.89399218559265
,0,0.28,0.59,-0.26,0.71,-0.03,-0.54,0.38,-6.02,0.25,-7.36,0,0,0,-9.67,0.86,1.37,3.90921902656555
,0,0.28,0.6,-0.26,0.71,0.2,0.33,0.16,-5.9,0.32,-7.67,0,0,0,-9.67,0.88,1.34,3.92380714416504
,0,0.28,0.6,-0.26,0.7,0.61,0.97,0.03,-13.96,2.14,3.58,0,0,0,-9.69,0.89,1.17,3.94434237480164
,0,0.29,0.6,-0.26,0.7,0.98,0.69,0.17,-10.66,1.94,5.22,0,0,0,-9.7,0.95,1.05,3.95980453491211
,0,0.29,0.6,-0.26,0.7,-0.05,0.55,0.12,-11,0.63,3.24,0,0,0,-9.7,0.96,0.99,3.97455930709839
,0,0.29,0.61,-0.25,0.69,-0.47,0.85,-0.21,-11.32,-2.95,-0.41,0,0,0,-9.72,0.92,0.86,3.99430632591248
,0,0.29,0.62,-0.25,0.69,-0.43,1.16,-0.2,-11.99,-0.7,-0.23,0,0,0,-9.74,0.88,0.63,4.00952553749084
,0,0.29,0.62,-0.24,0.68,-0.33,1.33,-0.21,-11.58,0.09,0.16,0,0,0,-9.75,0.86,0.51,4.02551293373108
,0,0.29,0.64,-0.24,0.68,-0.64,1.32,-0.13,-9.73,3.04,-1.7,0,0,0,-9.76,0.83,0.27,4.0450451374054
,0,0.28,0.65,-0.23,0.67,-1.28,1.2,-0.17,-8.63,2.65,-2.55,0,0,0,-9.77,0.79,0.05,4.05998969078064
,0,0.28,0.65,-0.22,0.67,-1.45,1.18,-0.16,-9.33,1.63,-1.84,0,0,0,-9.77,0.78,-0.04,4.07510089874268
,0,0.27,0.66,-0.21,0.67,-1.07,1.06,-0.06,-9.13,-1.2,-1.98,0,0,0,-9.77,0.76,-0.22,4.09549617767334
,0,0.27,0.67,-0.21,0.66,0.07,0.98,0.01,-10.07,-2.58,-1.19,0,0,0,-9.76,0.76,-0.41,4.11113905906677
,0,0.28,0.67,-0.21,0.65,0.66,0.96,0.08,-10.06,-1.99,-1.29,0,0,0,-9.76,0.77,-0.51,4.1276581287384
,0,0.29,0.68,-0.22,0.64,1.24,0.9,0.12,-10.22,0.12,-1.51,0,0,0,-9.75,0.77,-0.7,4.14623618125916
,0,0.29,0.68,-0.22,0.64,0.82,0.82,0.14,-10.37,1.84,-1.29,0,0,0,-9.73,0.78,-0.87,4.16212153434753
,0,0.3,0.68,-0.22,0.63,0.39,0.78,0.15,-9.55,2.68,-1.85,0,0,0,-9.71,0.81,-1.02,4.17970657348633
,0,0.3,0.69,-0.21,0.63,-0.43,0.76,0.08,-9.66,2.69,-1.87,0,0,0,-9.71,0.82,-1.09,4.19761538505554
,0,0.29,0.69,-0.21,0.63,-0.89,0.74,0.04,-9.39,2.07,-2.18,0,0,0,-9.69,0.85,-1.21,4.21562647819519
,0,0.29,0.7,-0.2,0.63,-0.82,0.69,-0.03,-9.8,1.25,-2.33,0,0,0,-9.67,0.87,-1.33,4.23253440856934
,0,0.29,0.7,-0.19,0.62,-0.62,0.67,-0.04,-9.91,1.23,-1.94,0,0,0,-9.65,0.87,-1.44,4.24930620193481
,0,0.28,0.7,-0.19,0.62,-0.36,0.62,-0.04,-9.89,1.64,-1.92,0,0,0,-9.65,0.87,-1.5,4.2668445110321
,0,0.28,0.71,-0.18,0.62,-0.39,0.61,-0.07,-9.78,0.83,-2.21,0,0,0,-9.63,0.87,-1.61,4.28354454040527
,0,0.28,0.71,-0.18,0.62,-0.41,0.6,-0.09,-9.91,0.2,-1.93,0,0,0,-9.61,0.87,-1.71,4.29903483390808
,0,0.28,0.72,-0.18,0.61,-0.37,0.54,-0.05,-9.86,0.64,-1.87,0,0,0,-9.6,0.87,-1.76,4.31746959686279
,0,0.28,0.72,-0.18,0.61,-0.3,0.46,-0.02,-9.53,0.42,-2.26,0,0,0,-9.59,0.88,-1.84,4.33386564254761
,0,0.28,0.72,-0.17,0.61,-0.21,0.43,-0,-9.41,0.53,-2.26,0,0,0,-9.57,0.89,-1.92,4.34953117370605
,0,0.28,0.72,-0.17,0.61,-0.08,0.4,0.02,-9.34,0.59,-2.29,0,0,0,-9.56,0.89,-1.95,4.36756730079651
,0,0.28,0.72,-0.17,0.61,0.01,0.39,0.03,-9.51,1.01,-1.84,0,0,0,-9.55,0.89,-2.03,4.38354849815369
,0,0.28,0.73,-0.17,0.6,-0.04,0.39,0.03,-9.34,1.26,-1.98,0,0,0,-9.53,0.9,-2.1,4.39919543266296
,0,0.28,0.73,-0.17,0.6,-0.14,0.39,0.02,-9.31,1.35,-2.14,0,0,0,-9.52,0.91,-2.13,4.41765284538269
,0,0.28,0.73,-0.17,0.6,-0.11,0.42,0.02,-9.54,0.94,-2.13,0,0,0,-9.5,0.92,-2.2,4.43383288383484
,0,0.28,0.73,-0.16,0.6,-0.03,0.42,0.02,-9.58,0.72,-2.21,0,0,0,-9.49,0.92,-2.28,4.44952917098999
,0,0.28,0.74,-0.16,0.59,0.17,0.41,0.04,-9.51,0.87,-2.44,0,0,0,-9.48,0.92,-2.32,4.46748733520508
,0,0.28,0.74,-0.16,0.59,0.21,0.42,0.04,-9.46,1.16,-2.32,0,0,0,-9.46,0.92,-2.4,4.48399233818054
,0,0.29,0.74,-0.16,0.59,0.18,0.42,0.03,-9.45,1.53,-2.7,0,0,0,-9.44,0.92,-2.48,4.49962544441223
,0,0.29,0.74,-0.16,0.59,0.04,0.44,0.03,-9.35,1.41,-2.79,0,0,0,-9.42,0.92,-2.52,4.51801586151123
,0,0.29,0.74,-0.16,0.58,0,0.46,0.02,-9.37,0.72,-2.73,0,0,0,-9.4,0.92,-2.61,4.53384470939636
,0,0.29,0.74,-0.16,0.58,0.05,0.47,0.03,-9.36,0.8,-2.93,0,0,0,-9.38,0.92,-2.69,4.54972624778748
,0,0.29,0.75,-0.16,0.58,0.11,0.49,0.03,-9.62,0.77,-2.72,0,0,0,-9.36,0.92,-2.74,4.5676851272583
,0,0.29,0.75,-0.16,0.57,0.12,0.52,0.01,-9.55,0.98,-2.63,0,0,0,-9.34,0.92,-2.83,4.58483529090881
,0,0.29,0.75,-0.16,0.57,0.13,0.53,0,-9.51,0.88,-2.69,0,0,0,-9.31,0.91,-2.93,4.59973406791687
,0,0.29,0.75,-0.16,0.57,0.17,0.57,-0.02,-9.53,0.78,-2.72,0,0,0,-9.29,0.91,-2.98,4.61695599555969
,0,0.3,0.75,-0.16,0.56,0.25,0.63,-0.03,-9.62,1.08,-2.41,0,0,0,-9.26,0.89,-3.07,4.6337296962738
,0,0.3,0.76,-0.16,0.56,0.28,0.65,-0.04,-9.42,1.01,-2.64,0,0,0,-9.23,0.87,-3.18,4.64943146705627
,0,0.3,0.76,-0.16,0.56,0.28,0.73,-0.07,-9.36,0.88,-2.57,0,0,0,-9.21,0.86,-3.23,4.66677832603455
,0,0.3,0.76,-0.16,0.55,0.34,0.83,-0.1,-9.36,1.07,-2.84,0,0,0,-9.17,0.82,-3.36,4.68399810791016
,0,0.3,0.77,-0.16,0.54,0.41,0.89,-0.12,-10.4,1.97,-2.32,0,0,0,-9.11,0.77,-3.52,4.69965291023254
,0,0.31,0.77,-0.16,0.53,0.44,0.99,-0.14,-10.48,1.37,-2.36,0,0,0,-9.08,0.74,-3.61,4.71801400184631
,0,0.31,0.77,-0.16,0.53,0.53,1.14,-0.21,-10.71,1.5,-1.64,0,0,0,-9,0.67,-3.81,4.73470568656921
,0,0.31,0.78,-0.17,0.52,0.52,1.21,-0.25,-10.85,1.64,-2.19,0,0,0,-8.91,0.59,-4.04,4.7505419254303
,0,0.31,0.79,-0.17,0.5,0.43,1.41,-0.29,-11.83,0.57,-1.58,0,0,0,-8.86,0.55,-4.16,4.76840329170227
,0,0.31,0.79,-0.17,0.5,0.51,1.63,-0.32,-11.78,-0.04,-1.65,0,0,0,-8.73,0.45,-4.43,4.78465151786804
,0,0.32,0.8,-0.17,0.48,0.62,1.78,-0.3,-12.31,-0.72,-1.26,0,0,0,-8.57,0.34,-4.75,4.80012392997742
,0,0.32,0.81,-0.17,0.46,0.9,2.09,-0.27,-12.68,-1,-1.39,0,0,0,-8.47,0.28,-4.92,4.81806707382202
,0,0.33,0.81,-0.17,0.45,1.23,2.33,-0.21,-13.1,-1.23,-1.42,0,0,0,-8.24,0.13,-5.3,4.83500647544861
,0,0.34,0.82,-0.18,0.42,1.4,2.42,-0.19,-12.45,-0.11,-2.68,0,0,0,-7.98,-0.05,-5.68,4.85049176216125
,0,0.34,0.83,-0.18,0.4,1.55,2.55,-0.25,-12.08,-0.15,-3.19,0,0,0,-7.84,-0.15,-5.88,4.86812734603882
,0,0.35,0.84,-0.18,0.38,1.45,2.58,-0.31,-11.05,0.53,-4.89,0,0,0,-7.53,-0.37,-6.26,4.88478994369507
,0,0.36,0.84,-0.19,0.36,1.36,2.57,-0.3,-10.45,1.28,-6.43,0,0,0,-7.21,-0.58,-6.61,4.90014576911926
,0,0.36,0.85,-0.19,0.33,1.28,2.44,-0.24,-11.36,1.62,-5.82,0,0,0,-7.05,-0.68,-6.77,4.91832160949707
,0,0.36,0.85,-0.19,0.32,1.09,2.16,-0.16,-9.15,0.33,-7.49,0,0,0,-6.75,-0.86,-7.05,4.93514347076416
,0,0.37,0.86,-0.19,0.3,0.9,2.06,-0.12,-8.15,0.65,-7.31,0,0,0,-6.48,-0.97,-7.29,4.9500253200531
,0,0.37,0.86,-0.18,0.29,0.13,1.6,-0.05,-8.76,0.23,-5.38,0,0,0,-6.36,-0.98,-7.39,4.9684054851532
,0,0.38,0.86,-0.18,0.29,-0.19,0.83,0.16,-7.37,1.34,-1.8,0,0,0,-6.22,-0.95,-7.51,4.98541498184204
,0,0.38,0.86,-0.18,0.29,-0.16,0.42,0.27,-6.48,-0.27,-1.49,0,0,0,-6.19,-0.89,-7.54,5.00134253501892
,0,0.38,0.86,-0.18,0.29,-0.16,-0.34,0.31,-5.89,-0.91,-1.8,0,0,0,-6.22,-0.86,-7.52,5.01828646659851
,0,0.38,0.86,-0.18,0.3,0.08,-0.94,0.29,-5.3,-0.9,-2.59,0,0,0,-6.34,-0.82,-7.43,5.03526401519775
,0,0.38,0.85,-0.19,0.31,0.17,-1.21,0.27,-5.26,-0.5,-3.11,0,0,0,-6.53,-0.82,-7.26,5.05063962936401
,0,0.38,0.84,-0.19,0.32,0.21,-1.71,0.25,-5.3,-0.43,-3.12,0,0,0,-6.66,-0.81,-7.15,5.06850719451904
,0,0.38,0.84,-0.2,0.33,0.17,-2.24,0.29,-5.75,0.32,-3.69,0,0,0,-6.95,-0.8,-6.87,5.08569121360779
,0,0.38,0.83,-0.21,0.35,0.07,-2.48,0.32,-6.18,0.53,-4.13,0,0,0,-7.29,-0.76,-6.51,5.10019612312317
,0,0.38,0.82,-0.21,0.38,-0.19,-2.9,0.45,-6.78,0.28,-4.48,0,0,0,-7.47,-0.71,-6.3,5.11811852455139
,0,0.37,0.81,-0.22,0.39,-0.32,-3.24,0.59,-7.54,-0.29,-4.95,0,0,0,-7.85,-0.6,-5.84,5.13567447662354
,0,0.37,0.8,-0.23,0.42,-0.3,-3.38,0.65,-8.12,-0.72,-5.14,0,0,0,-8.23,-0.46,-5.31,5.15106177330017
,0,0.37,0.78,-0.23,0.45,-0.16,-3.59,0.73,-8.46,-0.74,-5.21,0,0,0,-8.41,-0.39,-5.02,5.16838383674622
,0,0.37,0.77,-0.24,0.47,-0.03,-3.76,0.74,-9.26,-0.75,-5.65,0,0,0,-8.75,-0.27,-4.4,5.18565011024475
,0,0.36,0.75,-0.25,0.5,0.03,-3.82,0.72,-9.78,-0.22,-5.58,0,0,0,-9.06,-0.15,-3.74,5.2008113861084
,0,0.36,0.73,-0.26,0.53,0.08,-3.92,0.69,-9.98,0.17,-5.68,0,0,0,-9.2,-0.09,-3.39,5.21906781196594
,0,0.35,0.71,-0.27,0.54,-0.2,-3.99,0.67,-10.08,1.17,-6.26,0,0,0,-9.43,0.03,-2.67,5.23602652549744
,0,0.34,0.69,-0.27,0.57,-0.51,-3.98,0.65,-10.36,1.04,-6.86,0,0,0,-9.61,0.18,-1.94,5.25084233283997
,0,0.33,0.67,-0.27,0.6,-1.09,-3.87,0.6,-10.47,0.95,-6.84,0,0,0,-9.67,0.25,-1.57,5.26870203018188
,0,0.32,0.66,-0.27,0.62,-1.57,-3.64,0.51,-10.52,0.69,-6.95,0,0,0,-9.75,0.39,-0.87,5.28566908836365
,0,0.31,0.65,-0.27,0.65,-1.73,-3.48,0.46,-10.17,-0.17,-7.37,0,0,0,-9.79,0.49,-0.21,5.30104231834412
,0,0.29,0.63,-0.26,0.67,-1.7,-3.06,0.35,-10.1,-0.3,-7.38,0,0,0,-9.79,0.52,0.08,5.31865382194519
,0,0.28,0.62,-0.26,0.68,-1.41,-2.5,0.27,-8.51,-0.06,-7.8,0,0,0,-9.77,0.56,0.6,5.33587121963501
,0,0.27,0.61,-0.26,0.69,-0.98,-1.72,0.28,-7.35,0.12,-7.47,0,0,0,-9.73,0.6,0.97,5.35107588768005
,0,0.27,0.61,-0.26,0.7,-0.8,-1.24,0.29,-6.63,-0.04,-7.46,0,0,0,-9.72,0.62,1.09,5.3689181804657
,0,0.27,0.61,-0.25,0.7,-0.37,-0.33,0.28,-6.38,0.48,-7.02,0,0,0,-9.7,0.66,1.2,5.38637852668762
,0,0.27,0.61,-0.25,0.7,-0.15,0.49,0.17,-6.45,0.42,-7.19,0,0,0,-9.71,0.7,1.15,5.40228986740112
,0,0.27,0.61,-0.25,0.7,-0.07,0.84,0.07,-6.68,-0.17,-7.21,0,0,0,-9.73,0.7,0.98,5.41943907737732
,0,0.27,0.61,-0.25,0.7,0.72,0.67,0.09,-14.63,-0.32,8.78,0,0,0,-9.73,0.72,0.91,5.43673801422119
,0,0.28,0.62,-0.25,0.69,-0.24,0.58,0.02,-11.03,-0.91,3.61,0,0,0,-9.74,0.74,0.81,5.45175695419312
,0,0.27,0.62,-0.24,0.69,-0.52,0.7,-0.12,-11.42,-3.85,-0.56,0,0,0,-9.75,0.71,0.67,5.46988296508789
,0,0.27,0.63,-0.24,0.69,-0.27,1.1,-0.12,-11.36,-2.89,-1.77,0,0,0,-9.76,0.69,0.57,5.48742580413818
,0,0.28,0.64,-0.24,0.68,0.12,1.2,-0.02,-10.76,1.49,-0.85,0,0,0,-9.77,0.69,0.34,5.50351905822754
,0,0.28,0.65,-0.23,0.67,-0.15,1.19,0.01,-10.11,2.77,-1.65,0,0,0,-9.78,0.68,0.12,5.51981973648071
,0,0.28,0.65,-0.23,0.67,-0.98,1.1,-0.03,-9.76,3.27,-2.69,0,0,0,-9.78,0.68,0.03,5.53705716133118
,0,0.27,0.66,-0.22,0.67,-1.35,0.95,-0.05,-9.59,0.38,-1.57,0,0,0,-9.78,0.67,-0.13,5.55275440216064
,0,0.26,0.67,-0.21,0.66,-1.12,0.91,-0.03,-9.02,-0.34,-2.02,0,0,0,-9.77,0.67,-0.29,5.56987905502319
,0,0.27,0.67,-0.21,0.66,-0.1,0.8,0.01,-9.41,-1.46,-1.52,0,0,0,-9.77,0.67,-0.36,5.58776593208313
,0,0.27,0.67,-0.21,0.65,0.74,0.79,0.09,-9.6,-0.29,-1.26,0,0,0,-9.76,0.68,-0.52,5.6025550365448
,0,0.28,0.68,-0.21,0.65,0.86,0.77,0.1,-9.53,0.22,-1.3,0,0,0,-9.75,0.69,-0.68,5.61995339393616
,0,0.28,0.68,-0.22,0.64,0.66,0.75,0.12,-9.9,1.36,-0.64,0,0,0,-9.75,0.7,-0.75,5.63683676719666
,0,0.28,0.68,-0.21,0.64,-0.13,0.77,0.1,-9.88,2.27,-1.14,0,0,0,-9.73,0.72,-0.9,5.65271401405334
,0,0.28,0.69,-0.21,0.64,-0.54,0.77,0.08,-9.93,2.35,-1.41,0,0,0,-9.72,0.75,-1.03,5.67001175880432
,0,0.28,0.69,-0.2,0.64,-1.01,0.77,0.03,-9.62,1.47,-2.01,0,0,0,-9.71,0.76,-1.1,5.68710923194885
,0,0.27,0.7,-0.19,0.63,-0.87,0.74,0.01,-9.88,0.51,-2.24,0,0,0,-9.69,0.78,-1.22,5.70236968994141
,0,0.27,0.7,-0.19,0.63,-0.66,0.72,-0,-10.15,0.69,-2.55,0,0,0,-9.67,0.8,-1.35,5.72006249427795
,0,0.27,0.71,-0.18,0.63,-0.33,0.65,0.01,-10.17,0.91,-2.27,0,0,0,-9.67,0.8,-1.41,5.73748016357422
,0,0.27,0.71,-0.18,0.62,-0.26,0.59,0.01,-9.88,0.98,-2.23,0,0,0,-9.65,0.81,-1.52,5.75199317932129
,0,0.27,0.71,-0.18,0.62,-0.23,0.57,-0.01,-9.9,0.93,-2.17,0,0,0,-9.63,0.82,-1.63,5.76921033859253
,0,0.27,0.72,-0.18,0.62,-0.17,0.51,-0.01,-9.89,0.73,-1.69,0,0,0,-9.62,0.82,-1.68,5.78741598129272
,0,0.27,0.72,-0.17,0.62,-0.1,0.46,0.01,-9.47,0.7,-1.73,0,0,0,-9.61,0.82,-1.76,5.8023419380188
,0,0.27,0.72,-0.17,0.61,-0.03,0.46,0.02,-9.23,1.28,-1.77,0,0,0,-9.59,0.83,-1.85,5.81970310211182
,0,0.27,0.72,-0.17,0.61,-0.07,0.45,0.03,-9.41,1.32,-1.72,0,0,0,-9.58,0.83,-1.89,5.83823108673096
,0,0.27,0.73,-0.17,0.61,-0.21,0.44,0.01,-9.43,1.29,-1.91,0,0,0,-9.56,0.84,-1.97,5.85375380516052
,0,0.27,0.73,-0.17,0.61,-0.29,0.44,0,-9.36,1.34,-2.03,0,0,0,-9.55,0.85,-2.04,5.8703396320343
,0,0.27,0.73,-0.16,0.61,-0.39,0.43,-0.01,-9.16,1.16,-2.34,0,0,0,-9.54,0.86,-2.08,5.88792300224304
,0,0.27,0.73,-0.16,0.6,-0.32,0.42,-0.01,-9.51,0.89,-2.29,0,0,0,-9.52,0.88,-2.15,5.90422582626343
,0,0.27,0.74,-0.16,0.6,-0.24,0.42,0,-9.52,0.83,-2.53,0,0,0,-9.5,0.88,-2.23,5.92051243782043
,0,0.27,0.74,-0.16,0.6,-0.06,0.42,0.02,-9.43,0.77,-2.48,0,0,0,-9.49,0.89,-2.26,5.93838691711426
,0,0.27,0.74,-0.16,0.6,-0.03,0.42,0.02,-9.37,1.16,-2.71,0,0,0,-9.47,0.89,-2.34,5.95372343063354
,0,0.27,0.74,-0.15,0.59,-0.07,0.44,0.02,-9.37,1.15,-2.74,0,0,0,-9.45,0.9,-2.42,5.97064256668091
,0,0.27,0.75,-0.15,0.59,-0.07,0.46,0.01,-9.5,0.93,-2.53,0,0,0,-9.44,0.9,-2.46,5.9884021282196
,0,0.27,0.75,-0.15,0.59,-0.06,0.5,0.02,-9.61,0.86,-2.09,0,0,0,-9.42,0.91,-2.55,6.00468182563782
,0,0.27,0.75,-0.15,0.59,-0.07,0.52,0.01,-9.52,0.97,-2.37,0,0,0,-9.39,0.91,-2.65,6.02079701423645
,0,0.27,0.75,-0.15,0.58,-0.11,0.57,-0,-9.49,0.77,-2.27,0,0,0,-9.38,0.92,-2.69,6.0378532409668
,0,0.27,0.75,-0.15,0.58,-0.05,0.6,0,-9.34,0.61,-2.56,0,0,0,-9.35,0.92,-2.79,6.05404043197632
,0,0.27,0.76,-0.14,0.58,-0.01,0.62,0,-9.49,0.93,-2.92,0,0,0,-9.31,0.92,-2.91,6.07079792022705
,0,0.27,0.76,-0.14,0.57,0.05,0.66,-0.02,-9.54,1,-3.07,0,0,0,-9.3,0.91,-2.97,6.08876514434814
,0,0.27,0.76,-0.14,0.57,0.06,0.67,-0.03,-9.39,1.36,-3.37,0,0,0,-9.26,0.9,-3.09,6.1046507358551
,0,0.27,0.77,-0.14,0.56,0.07,0.69,-0.04,-9.57,1.12,-3.25,0,0,0,-9.21,0.89,-3.22,6.12097024917603
,0,0.28,0.77,-0.14,0.56,0.16,0.73,-0.06,-9.3,0.8,-3.12,0,0,0,-9.19,0.88,-3.28,6.13903117179871
,0,0.28,0.77,-0.14,0.55,0.26,0.77,-0.07,-10.46,1.65,-2.43,0,0,0,-9.14,0.86,-3.42,6.15516829490662
,0,0.28,0.78,-0.14,0.55,0.31,0.86,-0.07,-10.48,1.24,-2.2,0,0,0,-9.09,0.82,-3.58,6.1716046333313
,0,0.28,0.78,-0.14,0.54,0.39,0.98,-0.12,-10.63,1.09,-1.7,0,0,0,-9.05,0.8,-3.67,6.18916177749634
,0,0.28,0.79,-0.14,0.53,0.42,1.04,-0.14,-10.61,0.83,-2.22,0,0,0,-8.98,0.74,-3.85,6.20604825019836
,0,0.29,0.79,-0.14,0.52,0.43,1.12,-0.16,-11.3,-0.04,-1.57,0,0,0,-8.89,0.68,-4.06,6.22185659408569
,0,0.29,0.8,-0.15,0.51,0.62,1.47,-0.21,-11.36,-0.52,-1.46,0,0,0,-8.83,0.64,-4.19,6.23881483078003
,0,0.29,0.8,-0.15,0.5,0.78,1.62,-0.2,-11.59,-1.44,-1.37,0,0,0,-8.71,0.54,-4.46,6.25597643852234
,0,0.3,0.81,-0.15,0.48,1.02,1.79,-0.18,-12.77,-2.95,-1.24,0,0,0,-8.54,0.41,-4.79,6.27154231071472
,0,0.31,0.82,-0.16,0.46,1.64,2.18,-0.13,-13.52,-3.11,-1.04,0,0,0,-8.44,0.32,-4.97,6.28955769538879
,0,0.32,0.82,-0.17,0.45,2.36,2.41,-0.03,-12.34,-0.21,-2.91,0,0,0,-8.2,0.09,-5.36,6.30684208869934
,0,0.33,0.83,-0.18,0.42,2.52,2.47,-0.02,-12.13,0.74,-3.61,0,0,0,-7.93,-0.18,-5.76,6.32207798957825
,0,0.34,0.83,-0.19,0.39,2.45,2.59,-0.16,-12.09,1.16,-3.56,0,0,0,-7.78,-0.33,-5.95,6.3394501209259
,0,0.35,0.84,-0.19,0.38,1.94,2.5,-0.36,-11.23,2.45,-6.07,0,0,0,-7.48,-0.62,-6.3,6.35639476776123
,0,0.35,0.84,-0.2,0.35,1.31,2.39,-0.35,-10.76,1.58,-6.9,0,0,0,-7.17,-0.86,-6.62,6.37173867225647
,0,0.36,0.85,-0.2,0.33,0.97,2.33,-0.34,-10.24,1.46,-6.85,0,0,0,-7.02,-0.94,-6.77,6.38937902450562
,0,0.36,0.85,-0.2,0.32,0.33,2.21,-0.3,-9.53,1,-6.96,0,0,0,-6.71,-1.05,-7.06,6.40698933601379
,0,0.36,0.86,-0.19,0.3,-0.15,1.72,-0.09,-8.92,0.87,-3.14,0,0,0,-6.44,-1.07,-7.3,6.42211651802063
,0,0.36,0.86,-0.18,0.29,-0.3,1.35,0.04,-8.89,0.84,-2.15,0,0,0,-6.28,-1.01,-7.45,6.43951559066772
,0,0.37,0.86,-0.18,0.29,-0.1,0.55,0.33,-7.3,-0.29,-1.7,0,0,0,-6.25,-0.99,-7.49,6.45708918571472
,0,0.37,0.86,-0.18,0.29,0.1,-0.15,0.34,-6.28,-0.64,-2.26,0,0,0,-6.25,-0.95,-7.49,6.47228527069092
,0,0.37,0.86,-0.18,0.3,0.2,-0.44,0.33,-5.8,-0.34,-2.74,0,0,0,-6.34,-0.95,-7.41,6.48977065086365
,0,0.37,0.86,-0.19,0.3,0.34,-1.02,0.28,-5.42,-0.39,-2.91,0,0,0,-6.41,-0.95,-7.35,6.50681805610657
,0,0.37,0.85,-0.19,0.31,0.4,-1.56,0.25,-5.29,-0.07,-3.3,0,0,0,-6.62,-0.98,-7.16,6.52202987670898
,0,0.37,0.84,-0.2,0.33,0.41,-1.83,0.27,-5.42,0.15,-3.46,0,0,0,-6.89,-0.99,-6.89,6.54003834724426
,0,0.37,0.84,-0.21,0.34,0.27,-2.35,0.37,-5.73,0.69,-3.94,0,0,0,-7.05,-0.99,-6.73,6.55707597732544
,0,0.37,0.83,-0.22,0.36,-0.01,-2.8,0.54,-6.17,0.33,-4.24,0,0,0,-7.4,-0.93,-6.35,6.57254600524902
,0,0.37,0.82,-0.22,0.38,-0.13,-2.98,0.63,-6.92,-0.39,-4.7,0,0,0,-7.78,-0.81,-5.91,6.58981084823608
,0,0.37,0.81,-0.23,0.4,-0.23,-3.32,0.79,-7.37,-0.98,-4.87,0,0,0,-7.97,-0.73,-5.65,6.60800981521606
,0,0.37,0.79,-0.24,0.43,-0.12,-3.54,0.88,-8.13,-1.21,-5.35,0,0,0,-8.34,-0.58,-5.11,6.62317037582397
,0,0.36,0.77,-0.25,0.46,-0.04,-3.63,0.88,-8.31,-1.21,-5.43,0,0,0,-8.7,-0.44,-4.5,6.64075040817261
,0,0.36,0.76,-0.25,0.47,0.11,-3.79,0.87,-8.78,-0.75,-5.66,0,0,0,-8.86,-0.37,-4.18,6.65847277641296
,0,0.36,0.74,-0.26,0.5,0.14,-3.9,0.86,-9.47,0.63,-6.03,0,0,0,-9.15,-0.23,-3.5,6.67447376251221
,0,0.36,0.72,-0.27,0.53,-0,-3.94,0.86,-10.18,0.69,-6.71,0,0,0,-9.4,-0.07,-2.79,6.69132375717163
,0,0.35,0.7,-0.27,0.57,-0.49,-3.98,0.84,-10.43,0.78,-6.92,0,0,0,-9.5,0.01,-2.42,6.70904183387756
,0,0.34,0.69,-0.28,0.58,-1.03,-3.87,0.78,-10.53,0.58,-6.6,0,0,0,-9.65,0.2,-1.69,6.72463464736938
,0,0.33,0.67,-0.27,0.61,-1.26,-3.78,0.7,-10.62,0.23,-6.69,0,0,0,-9.74,0.36,-0.99,6.74167513847351
,0,0.31,0.65,-0.27,0.64,-1.51,-3.48,0.57,-10.81,0.24,-6.81,0,0,0,-9.77,0.42,-0.65,6.75935196876526
,0,0.31,0.64,-0.27,0.65,-1.52,-3.07,0.43,-9.94,0.19,-7.41,0,0,0,-9.79,0.52,-0.04,6.77613139152527
,0,0.29,0.62,-0.27,0.67,-1.44,-2.77,0.38,-9.02,0.01,-7.48,0,0,0,-9.77,0.58,0.46,6.7925431728363
,0,0.28,0.61,-0.26,0.69,-1.23,-2.07,0.32,-7.78,-0.18,-7.17,0,0,0,-9.76,0.61,0.66,6.80995202064514
,0,0.28,0.61,-0.26,0.69,-0.88,-1.24,0.27,-6.55,-0.06,-7.7,0,0,0,-9.73,0.64,0.95,6.8263566493988
,0,0.28,0.61,-0.26,0.7,-0.69,-0.76,0.26,-6.57,0.01,-7.53,0,0,0,-9.72,0.68,1.06,6.84261345863342
,0,0.27,0.61,-0.25,0.7,-0.35,0.14,0.18,-6.66,0.1,-7.34,0,0,0,-9.72,0.69,1.05,6.85936522483826
,0,0.28,0.61,-0.25,0.69,-0.01,0.96,0.02,-14.46,1.41,4.72,0,0,0,-9.73,0.7,0.91,6.87568402290344
,0,0.28,0.62,-0.25,0.69,0.31,0.69,-0.01,-11.61,-0.87,6.24,0,0,0,-9.75,0.71,0.74,6.8924617767334
,0,0.28,0.63,-0.25,0.68,-0.2,0.68,-0.06,-12.21,-1.26,1.79,0,0,0,-9.75,0.7,0.68,6.91046404838562
,0,0.28,0.63,-0.25,0.68,-0.64,0.95,-0.27,-10.29,-3.35,-1.31,0,0,0,-9.77,0.65,0.52,6.92612409591675
,0,0.28,0.64,-0.24,0.67,-0.27,1.37,-0.19,-11.43,-0.12,-0.13,0,0,0,-9.78,0.6,0.28,6.94278621673584
,0,0.28,0.65,-0.24,0.67,-0.18,1.42,-0.15,-10.6,1.04,-0.1,0,0,0,-9.78,0.59,0.15,6.95981621742249
,0,0.28,0.65,-0.24,0.66,-0.59,1.38,-0.1,-8.54,3.95,-2.93,0,0,0,-9.78,0.57,-0.1,6.97634625434875
,0,0.27,0.67,-0.22,0.66,-1.46,1.25,-0.11,-8.78,2.33,-3.61,0,0,0,-9.78,0.55,-0.33,6.99232196807861
,0,0.26,0.68,-0.21,0.65,-1.78,1.18,-0.11,-9.84,1.11,-2.57,0,0,0,-9.78,0.55,-0.44,7.0094199180603
,0,0.26,0.68,-0.2,0.65,-1.59,1.08,-0.05,-9.87,-1.69,-2.29,0,0,0,-9.77,0.55,-0.63,7.02543997764587
,0,0.25,0.69,-0.2,0.65,-1.14,1.05,-0.04,-9.99,-1.78,-1.69,0,0,0,-9.75,0.56,-0.81,7.0421290397644
,0,0.26,0.7,-0.2,0.64,0.15,0.99,0.07,-9.86,-1.37,-2,0,0,0,-9.74,0.57,-0.91,7.05974936485291
,0,0.26,0.7,-0.2,0.64,0.77,0.96,0.13,-10.31,-0.64,-1.42,0,0,0,-9.72,0.58,-1.1,7.07552766799927
,0,0.27,0.7,-0.2,0.63,0.74,0.89,0.13,-9.79,3.23,-1.35,0,0,0,-9.7,0.58,-1.28,7.0921642780304
,0,0.27,0.71,-0.2,0.62,0.33,0.88,0.13,-9.78,3.78,-1.88,0,0,0,-9.69,0.59,-1.36,7.10959792137146
,0,0.27,0.71,-0.19,0.62,-0.72,0.86,0.07,-9.43,2.52,-2.15,0,0,0,-9.66,0.62,-1.52,7.12565326690674
,0,0.26,0.72,-0.18,0.62,-1.04,0.82,0.04,-9.63,1.7,-2.17,0,0,0,-9.64,0.66,-1.65,7.14224648475647
,0,0.26,0.72,-0.17,0.62,-1.21,0.77,-0.02,-9.84,0.43,-2.72,0,0,0,-9.62,0.68,-1.72,7.15961742401123
,0,0.26,0.73,-0.17,0.61,-0.75,0.74,-0.01,-10.07,0.51,-2.6,0,0,0,-9.6,0.71,-1.85,7.17486715316772
,0,0.25,0.73,-0.16,0.61,-0.53,0.69,-0,-9.36,1.68,-3.12,0,0,0,-9.57,0.72,-1.97,7.19175505638123
,0,0.25,0.74,-0.16,0.61,-0.41,0.64,0,-9.68,1.4,-2.75,0,0,0,-9.56,0.73,-2.02,7.20961380004883
,0,0.25,0.74,-0.15,0.61,-0.51,0.63,-0.03,-9.76,0.73,-2.58,0,0,0,-9.54,0.75,-2.13,7.2251079082489
,0,0.25,0.74,-0.15,0.6,-0.49,0.6,-0.04,-9.8,0.14,-2.69,0,0,0,-9.51,0.76,-2.23,7.24227356910706
,0,0.25,0.75,-0.15,0.6,-0.28,0.51,-0.02,-9.7,0.65,-2.72,0,0,0,-9.5,0.76,-2.28,7.25931024551392
,0,0.25,0.75,-0.15,0.6,-0.15,0.43,0.01,-9.48,1.11,-2.72,0,0,0,-9.48,0.77,-2.36,7.27402901649475
,0,0.25,0.75,-0.14,0.6,-0.18,0.4,0.01,-9.2,0.75,-3,0,0,0,-9.46,0.78,-2.43,7.29172372817993
,0,0.25,0.75,-0.14,0.59,-0.28,0.34,0.02,-9.28,0.81,-2.94,0,0,0,-9.45,0.79,-2.46,7.30966639518738
,0,0.25,0.75,-0.14,0.59,-0.37,0.31,0.03,-9.27,0.95,-2.82,0,0,0,-9.44,0.81,-2.51,7.32505536079407
,0,0.24,0.76,-0.13,0.59,-0.41,0.29,0.04,-9.39,0.38,-2.8,0,0,0,-9.42,0.84,-2.55,7.34232473373413
,0,0.24,0.76,-0.13,0.59,-0.36,0.28,0.04,-9.39,0.49,-2.58,0,0,0,-9.42,0.85,-2.58,7.36020827293396
,0,0.24,0.76,-0.13,0.59,-0.22,0.26,0.06,-9.67,0.93,-2.62,0,0,0,-9.4,0.88,-2.62,7.37426209449768
,0,0.24,0.76,-0.13,0.59,-0.19,0.27,0.07,-9.62,0.88,-2.65,0,0,0,-9.39,0.9,-2.67,7.39216065406799
,0,0.24,0.76,-0.13,0.59,-0.12,0.27,0.07,-9.77,0.72,-2.37,0,0,0,-9.38,0.91,-2.69,7.40941667556763
,0,0.24,0.76,-0.13,0.59,-0.03,0.28,0.09,-9.61,0.51,-2.33,0,0,0,-9.36,0.93,-2.74,7.42426156997681
,0,0.24,0.76,-0.12,0.58,0.02,0.31,0.09,-9.47,0.58,-1.97,0,0,0,-9.34,0.94,-2.8,7.44214248657227
,0,0.25,0.77,-0.12,0.58,0.12,0.4,0.11,-9.37,0.88,-1.96,0,0,0,-9.33,0.95,-2.84,7.45997929573059
,0,0.25,0.77,-0.12,0.58,0.14,0.54,0.1,-9.41,1.71,-1.98,0,0,0,-9.3,0.96,-2.93,7.47488331794739
,0,0.25,0.77,-0.12,0.57,0.13,0.6,0.09,-9.4,1.96,-1.95,0,0,0,-9.27,0.97,-3.04,7.49282073974609
,0,0.25,0.77,-0.12,0.57,0.11,0.69,0.07,-9.5,1.79,-2.65,0,0,0,-9.24,0.97,-3.1,7.51014256477356
,0,0.25,0.78,-0.12,0.57,0.12,0.78,0.06,-9.3,1.06,-3.15,0,0,0,-9.2,0.97,-3.24,7.52532339096069
,0,0.26,0.78,-0.12,0.56,0.15,0.82,0.04,-9.64,0.75,-3.12,0,0,0,-9.14,0.97,-3.39,7.54282736778259
,0,0.26,0.78,-0.12,0.55,0.2,0.87,0.03,-9.58,0.7,-3.44,0,0,0,-9.11,0.97,-3.47,7.56022787094116
,0,0.26,0.79,-0.12,0.55,0.22,0.93,0.01,-9.72,0.36,-3.68,0,0,0,-9.05,0.96,-3.64,7.57555723190308
,0,0.26,0.79,-0.12,0.54,0.38,1,-0.01,-9.75,0.76,-3.46,0,0,0,-8.98,0.93,-3.82,7.59310340881348
,0,0.26,0.8,-0.12,0.53,0.48,1.05,-0.02,-10.69,1.7,-3.12,0,0,0,-8.94,0.91,-3.91,7.60992050170898
,0,0.27,0.8,-0.12,0.53,0.45,1.08,-0.02,-10.39,1.44,-3.5,0,0,0,-8.86,0.87,-4.1,7.62541627883911
,0,0.27,0.8,-0.12,0.52,0.62,1.16,-0.04,-10.32,1.3,-3.08,0,0,0,-8.76,0.82,-4.31,7.64356803894043
,0,0.28,0.81,-0.12,0.5,0.72,1.2,-0.06,-10.22,1.21,-3.13,0,0,0,-8.71,0.78,-4.42,7.66080188751221
,0,0.28,0.81,-0.13,0.5,0.79,1.35,-0.06,-10.88,-0.47,-2.21,0,0,0,-8.6,0.71,-4.65,7.6750705242157
,0,0.28,0.82,-0.13,0.48,1.06,1.54,-0.08,-11.09,-0.76,-2.29,0,0,0,-8.46,0.6,-4.91,7.6931209564209
,0,0.29,0.82,-0.13,0.47,1.19,1.66,-0.06,-11.11,-1.35,-2.35,0,0,0,-8.38,0.54,-5.05,7.71053910255432
,0,0.3,0.83,-0.14,0.46,1.55,1.9,-0.03,-11.75,-2.83,-2.4,0,0,0,-8.2,0.39,-5.36,7.72575187683105
,0,0.31,0.83,-0.15,0.43,2.11,2.15,0.02,-12.42,-2.12,-2.02,0,0,0,-7.97,0.18,-5.7,7.74299907684326
,0,0.32,0.84,-0.16,0.41,2.36,2.21,0.05,-12.03,-1.28,-2.77,0,0,0,-7.85,0.05,-5.87,7.7602813243866
,0,0.33,0.84,-0.17,0.39,2.49,2.39,-0.02,-12.2,0.25,-2.77,0,0,0,-7.57,-0.23,-6.22,7.77587556838989
,0,0.34,0.85,-0.18,0.37,2.03,2.44,-0.22,-11.96,2.81,-5.51,0,0,0,-7.27,-0.52,-6.55,7.79371523857117
,0,0.34,0.86,-0.18,0.34,1.62,2.47,-0.27,-12.18,3.56,-6.25,0,0,0,-7.11,-0.65,-6.71,7.81029582023621
,0,0.35,0.86,-0.18,0.33,0.85,2.4,-0.27,-12.17,2.08,-7.07,0,0,0,-6.79,-0.82,-7.02,7.82563591003418
,0,0.35,0.87,-0.18,0.31,0.24,2.21,-0.24,-9.35,1.71,-7.53,0,0,0,-6.47,-0.91,-7.31,7.84346437454224
,0,0.35,0.87,-0.17,0.29,-0.03,2.07,-0.19,-9.03,0.65,-7.01,0,0,0,-6.32,-0.92,-7.44,7.86062383651733
,0,0.35,0.88,-0.17,0.29,-0.5,1.51,-0.1,-8.89,-0.08,-3.87,0,0,0,-6.07,-0.87,-7.65,7.8756320476532
,0,0.35,0.88,-0.16,0.28,-0.2,0.76,0.12,-7.28,0.73,-2.23,0,0,0,-5.93,-0.82,-7.76,7.89369606971741
,0,0.35,0.88,-0.16,0.28,-0.02,0.38,0.18,-6.97,0.55,-2.13,0,0,0,-5.9,-0.81,-7.78,7.91051125526428
,0,0.36,0.88,-0.16,0.28,0.09,-0.39,0.19,-5.71,-0.68,-2.38,0,0,0,-5.93,-0.79,-7.76,7.92560958862305
,0,0.36,0.87,-0.16,0.29,0.38,-1,0.16,-5.44,-0.48,-2.6,0,0,0,-6.06,-0.82,-7.66,7.94312071800232
,0,0.36,0.87,-0.17,0.3,0.5,-1.29,0.15,-5.13,-0.29,-3.03,0,0,0,-6.16,-0.85,-7.57,7.9608747959137
,0,0.36,0.86,-0.18,0.3,0.6,-1.84,0.15,-4.98,-0.14,-3.39,0,0,0,-6.41,-0.91,-7.36,7.97573089599609
,0,0.36,0.86,-0.19,0.32,0.54,-2.36,0.24,-5.71,0.42,-3.55,0,0,0,-6.72,-0.96,-7.06,7.99410939216614
,0,0.35,0.85,-0.2,0.34,0.42,-2.61,0.31,-6.01,0.68,-3.69,0,0,0,-7.09,-0.96,-6.69,8.0105414390564
,0,0.35,0.84,-0.21,0.36,0.07,-3.03,0.45,-6.81,0.2,-4.43,0,0,0,-7.29,-0.94,-6.48,8.02610182762146
,0,0.35,0.83,-0.21,0.38,-0.24,-3.37,0.59,-7.53,-0.47,-5.15,0,0,0,-7.7,-0.83,-6,8.04466581344604
,0,0.35,0.81,-0.22,0.41,-0.31,-3.51,0.64,-7.79,-0.82,-5.25,0,0,0,-8.11,-0.7,-5.46,8.06153535842896
,0,0.35,0.8,-0.23,0.43,-0.27,-3.69,0.67,-8.67,-1.03,-5.47,0,0,0,-8.3,-0.63,-5.17,8.07697558403015
,0,0.34,0.78,-0.23,0.46,-0.18,-3.84,0.65,-9.45,-0.79,-5.97,0,0,0,-8.67,-0.51,-4.55,8.09497284889221
,0,0.34,0.76,-0.24,0.49,-0.15,-3.9,0.62,-9.8,-0.55,-5.98,0,0,0,-8.99,-0.39,-3.88,8.11153221130371
,0,0.33,0.75,-0.25,0.51,-0.14,-4,0.61,-10.01,0.35,-6.05,0,0,0,-9.14,-0.33,-3.52,8.12718915939331
,0,0.33,0.73,-0.26,0.54,-0.35,-4.09,0.64,-10.38,0.86,-6.33,0,0,0,-9.39,-0.2,-2.8,8.14604043960571
,0,0.32,0.71,-0.26,0.57,-0.5,-4.12,0.65,-10.55,0.8,-6.23,0,0,0,-9.59,-0.05,-2.04,8.1615879535675
,0,0.31,0.7,-0.26,0.59,-0.81,-4.04,0.65,-10.98,0.53,-6.46,0,0,0,-9.66,0.01,-1.66,8.17690849304199
,0,0.3,0.68,-0.26,0.62,-1.05,-3.83,0.63,-10.81,0.19,-6.63,0,0,0,-9.76,0.16,-0.93,8.19581007957458
,0,0.29,0.66,-0.26,0.65,-1.13,-3.68,0.6,-10.37,-0.28,-7.09,0,0,0,-9.79,0.28,-0.25,8.2117133140564
,0,0.28,0.65,-0.26,0.66,-1.15,-3.21,0.56,-10.18,-0.05,-7.85,0,0,0,-9.8,0.34,0.05,8.2270176410675
,0,0.27,0.63,-0.26,0.68,-1.1,-2.62,0.52,-7.94,-0.31,-9.45,0,0,0,-9.77,0.43,0.58,8.24581789970398
,0,0.26,0.62,-0.26,0.7,-1.04,-2.24,0.45,-7.05,-0.16,-9.84,0,0,0,-9.74,0.49,0.97,8.26238775253296
,0,0.26,0.61,-0.25,0.7,-0.77,-1.2,0.27,-5.78,0.33,-9.22,0,0,0,-9.73,0.51,1.09,8.27717328071594
,0,0.26,0.61,-0.25,0.71,-0.58,-0.12,0.09,-5.69,1.04,-8.89,0,0,0,-9.72,0.52,1.17,8.29570174217224
,0,0.25,0.62,-0.25,0.7,-0.57,0.39,0.01,-6.67,1.96,-8.42,0,0,0,-9.73,0.5,1.05,8.31229186058044
,0,0.25,0.62,-0.24,0.7,-0.11,1.02,-0,-15.8,1.27,7.06,0,0,0,-9.74,0.5,0.96,8.3277370929718
,0,0.26,0.63,-0.24,0.7,-0.14,0.52,0.13,-10.47,-1.01,2.52,0,0,0,-9.75,0.53,0.84,8.34606409072876
,0,0.25,0.63,-0.24,0.69,-0.49,0.67,-0.02,-11.31,-2.61,0.66,0,0,0,-9.76,0.5,0.71,8.36215376853943
,0,0.25,0.64,-0.24,0.69,-0.18,0.96,-0.12,-11.38,-3.46,-1.09,0,0,0,-9.77,0.49,0.62,8.37720346450806
,0,0.26,0.64,-0.23,0.68,0.25,1.28,-0.06,-11.74,-1.21,0.22,0,0,0,-9.78,0.48,0.39,8.39652609825134
,0,0.26,0.65,-0.23,0.67,0.34,1.27,0,-10.29,0.19,-0.54,0,0,0,-9.79,0.48,0.15,8.41238212585449
,0,0.26,0.65,-0.23,0.67,0.01,1.19,0.05,-9.09,3.39,-2.19,0,0,0,-9.79,0.49,0.03,8.42727160453796
,0,0.26,0.66,-0.22,0.66,-0.82,1.05,0.09,-9.93,1.66,-2.54,0,0,0,-9.79,0.51,-0.16,8.4459490776062
,0,0.26,0.67,-0.21,0.66,-1.03,1,0.09,-10.59,0.72,-1.69,0,0,0,-9.78,0.53,-0.33,8.46229100227356
,0,0.26,0.67,-0.21,0.66,-0.68,0.87,0.08,-9.84,-0.69,-1.77,0,0,0,-9.78,0.54,-0.4,8.47797203063965
,0,0.26,0.68,-0.21,0.65,0.17,0.82,0.1,-9.84,-0.93,-1.29,0,0,0,-9.77,0.55,-0.56,8.496915102005
,0,0.27,0.68,-0.21,0.65,0.52,0.81,0.12,-9.62,0.1,-1,0,0,0,-9.76,0.57,-0.72,8.51261401176453
,0,0.27,0.68,-0.21,0.64,0.88,0.78,0.13,-9.61,0.84,-1.03,0,0,0,-9.75,0.57,-0.8,8.5280499458313
,0,0.28,0.69,-0.21,0.64,0.59,0.76,0.16,-9.83,2.08,-1.51,0,0,0,-9.74,0.59,-0.95,8.54698896408081
,0,0.28,0.69,-0.21,0.63,0.22,0.76,0.15,-9.82,2.15,-2.02,0,0,0,-9.72,0.62,-1.1,8.56265497207642
,0,0.28,0.69,-0.21,0.63,-0.5,0.75,0.11,-9.86,1.89,-2.01,0,0,0,-9.71,0.63,-1.16,8.57784008979797
,0,0.28,0.7,-0.2,0.63,-0.78,0.72,0.05,-9.71,0.85,-2.25,0,0,0,-9.69,0.66,-1.29,8.59729146957397
,0,0.28,0.7,-0.19,0.62,-0.67,0.7,0.05,-9.94,0.65,-2.46,0,0,0,-9.67,0.69,-1.41,8.61287355422974
,0,0.28,0.71,-0.19,0.62,-0.18,0.67,0.05,-10.2,0.89,-2.15,0,0,0,-9.66,0.69,-1.48,8.62787890434265
,0,0.28,0.71,-0.19,0.62,0.03,0.61,0.03,-9.86,0.87,-2.45,0,0,0,-9.64,0.7,-1.59,8.64746427536011
,0,0.28,0.71,-0.19,0.61,0.04,0.57,0.02,-10.02,0.53,-2.04,0,0,0,-9.63,0.7,-1.7,8.6629810333252
,0,0.28,0.72,-0.19,0.61,-0,0.51,0.01,-9.81,0.49,-2.05,0,0,0,-9.62,0.7,-1.75,8.67814040184021
,0,0.28,0.72,-0.19,0.61,-0.02,0.47,0.04,-9.58,0.63,-2.41,0,0,0,-9.6,0.71,-1.84,8.69699096679688
,0,0.28,0.72,-0.18,0.61,0,0.44,0.04,-9.31,0.82,-2.31,0,0,0,-9.58,0.72,-1.92,8.71290898323059
,0,0.28,0.72,-0.18,0.6,0.06,0.4,0.05,-9.33,1.03,-2.06,0,0,0,-9.58,0.72,-1.96,8.72836494445801
,0,0.28,0.72,-0.18,0.6,0.07,0.38,0.05,-9.29,1.1,-1.98,0,0,0,-9.56,0.73,-2.03,8.74741196632385
,0,0.28,0.73,-0.18,0.6,0.03,0.38,0.05,-9.37,1.14,-2.11,0,0,0,-9.54,0.74,-2.1,8.76357197761536
,0,0.28,0.73,-0.18,0.6,-0.15,0.39,0.03,-9.47,1.1,-1.91,0,0,0,-9.54,0.74,-2.13,8.7785325050354
,0,0.28,0.73,-0.18,0.6,-0.21,0.41,0.01,-9.44,1.23,-1.75,0,0,0,-9.52,0.76,-2.2,8.7955048084259
,0,0.28,0.73,-0.18,0.59,-0.21,0.42,0,-9.28,1.39,-2.19,0,0,0,-9.5,0.78,-2.27,8.81201648712158
,0,0.28,0.73,-0.17,0.59,-0.16,0.43,0.01,-9.56,1.45,-2.29,0,0,0,-9.49,0.78,-2.31,8.82729148864746
,0,0.28,0.74,-0.17,0.59,-0.14,0.4,-0.01,-9.64,1.32,-2.58,0,0,0,-9.47,0.79,-2.38,8.84654903411865
,0,0.28,0.74,-0.17,0.59,-0.18,0.39,-0.02,-9.6,1.12,-2.68,0,0,0,-9.46,0.79,-2.45,8.86285138130188
,0,0.28,0.74,-0.17,0.59,-0.25,0.4,-0.02,-9.7,0.93,-2.11,0,0,0,-9.45,0.8,-2.49,8.87749862670898
,0,0.28,0.74,-0.17,0.58,-0.28,0.4,-0.01,-9.48,0.72,-2.12,0,0,0,-9.43,0.81,-2.56,8.89570617675781
,0,0.28,0.75,-0.16,0.58,-0.26,0.41,-0.01,-9.54,0.84,-2.04,0,0,0,-9.4,0.82,-2.63,8.91218996047974
,0,0.28,0.75,-0.16,0.58,-0.23,0.49,-0.01,-9.5,0.82,-2.23,0,0,0,-9.39,0.83,-2.67,8.92730402946472
,0,0.28,0.75,-0.16,0.58,-0.17,0.56,-0.02,-9.43,0.54,-2.39,0,0,0,-9.37,0.83,-2.76,8.94549918174744
,0,0.28,0.75,-0.16,0.57,-0.1,0.58,-0.02,-9.59,0.53,-2.24,0,0,0,-9.34,0.82,-2.86,8.96205759048462
,0,0.28,0.76,-0.16,0.57,0.04,0.65,-0.03,-9.5,0.78,-2.52,0,0,0,-9.32,0.82,-2.91,8.97756505012512
,0,0.28,0.76,-0.16,0.57,0.12,0.73,-0.04,-9.54,0.92,-2.54,0,0,0,-9.28,0.81,-3.04,8.99674201011658
,0,0.28,0.76,-0.15,0.56,0.14,0.77,-0.05,-9.34,1.1,-3.02,0,0,0,-9.23,0.79,-3.19,9.01309990882874
,0,0.28,0.77,-0.15,0.56,0.11,0.85,-0.09,-9.18,0.35,-3.12,0,0,0,-9.21,0.78,-3.27,9.02760124206543
,0,0.28,0.77,-0.15,0.55,0.21,0.95,-0.12,-10.61,1.63,-2.1,0,0,0,-9.15,0.74,-3.43,9.04707980155945
,0,0.29,0.78,-0.15,0.54,0.25,0.98,-0.11,-10.39,1.67,-2.51,0,0,0,-9.08,0.71,-3.61,9.06325483322144
,0,0.29,0.78,-0.15,0.54,0.27,1.11,-0.15,-10.7,1.44,-2.22,0,0,0,-9.04,0.68,-3.71,9.07864618301392
,0,0.29,0.79,-0.15,0.53,0.31,1.23,-0.22,-10.85,1.69,-2.37,0,0,0,-8.96,0.62,-3.93,9.09824228286743
,0,0.29,0.79,-0.15,0.51,0.26,1.29,-0.23,-11.04,0.17,-2.49,0,0,0,-8.86,0.56,-4.16,9.11304402351379
,0,0.29,0.8,-0.15,0.51,0.35,1.44,-0.26,-11.11,-0.02,-2.31,0,0,0,-8.8,0.52,-4.28,9.12814879417419
,0,0.29,0.8,-0.15,0.49,0.56,1.61,-0.24,-11,-0.63,-1.86,0,0,0,-8.67,0.44,-4.55,9.14845943450928
,0,0.3,0.81,-0.15,0.48,0.68,1.71,-0.23,-11.1,-0.62,-2.02,0,0,0,-8.51,0.33,-4.85,9.16384959220886
,0,0.3,0.82,-0.16,0.47,0.92,1.94,-0.2,-11.4,-0.89,-1.76,0,0,0,-8.42,0.27,-5.01,9.17886018753052
,0,0.31,0.82,-0.16,0.45,1.22,2.16,-0.16,-12.16,-1.66,-1.94,0,0,0,-8.21,0.13,-5.36,9.19922780990601
,0,0.32,0.83,-0.17,0.43,1.42,2.25,-0.13,-12.16,-0.76,-2.84,0,0,0,-7.96,-0.04,-5.71,9.21381235122681
,0,0.32,0.83,-0.17,0.41,1.84,2.36,-0.09,-12,0.08,-3.1,0,0,0,-7.83,-0.15,-5.89,9.22883534431458
,0,0.33,0.84,-0.18,0.39,1.88,2.4,-0.12,-11.72,1.4,-4.19,0,0,0,-7.54,-0.39,-6.24,9.24939799308777
,0,0.34,0.85,-0.18,0.36,1.43,2.44,-0.19,-10.44,2.26,-7.57,0,0,0,-7.24,-0.61,-6.57,9.26427984237671
,0,0.35,0.85,-0.18,0.35,1.07,2.45,-0.18,-11.51,1.96,-6.89,0,0,0,-7.08,-0.69,-6.73,9.27947640419006
,0,0.35,0.86,-0.18,0.33,0.58,2.37,-0.07,-9.9,1.3,-7.19,0,0,0,-6.76,-0.8,-7.05,9.30021238327026
,0,0.36,0.86,-0.18,0.31,0.15,2.11,0.04,-8.94,0.95,-6.87,0,0,0,-6.46,-0.83,-7.32,9.3153088092804
,0,0.36,0.87,-0.17,0.3,-0.06,1.8,0.09,-9.11,0.03,-3.74,0,0,0,-6.33,-0.82,-7.43,9.3306291103363
,0,0.37,0.87,-0.17,0.29,0.14,1.05,0.32,-8.29,0.11,-2.02,0,0,0,-6.15,-0.8,-7.59,9.35088467597961
,0,0.37,0.87,-0.17,0.28,0.6,0.32,0.4,-6.54,-0.36,-2.22,0,0,0,-6.08,-0.83,-7.64,9.36611604690552
,0,0.38,0.86,-0.18,0.28,0.65,0,0.35,-6.32,-0.48,-2.75,0,0,0,-6.09,-0.85,-7.63,9.3812084197998
,0,0.38,0.86,-0.18,0.28,0.72,-0.59,0.23,-5.81,0.1,-2.83,0,0,0,-6.16,-0.93,-7.57,9.40092802047729
,0,0.38,0.86,-0.19,0.29,0.54,-1.15,0.17,-5.53,0.43,-3.02,0,0,0,-6.31,-1,-7.43,9.41680145263672
,0,0.38,0.85,-0.2,0.3,0.4,-1.45,0.18,-5.42,0.66,-3.26,0,0,0,-6.54,-1.02,-7.23,9.43291568756104
,0,0.38,0.84,-0.2,0.32,0.07,-2.02,0.26,-5.42,1,-3.64,0,0,0,-6.68,-1.01,-7.1,9.45200753211975
,0,0.38,0.84,-0.21,0.33,-0.28,-2.49,0.41,-6.01,0.87,-3.91,0,0,0,-7.01,-0.93,-6.79,9.46827387809753
,0,0.37,0.83,-0.21,0.36,-0.6,-2.89,0.53,-6.47,0.11,-4.4,0,0,0,-7.37,-0.79,-6.41,9.48543429374695
,0,0.37,0.82,-0.22,0.39,-0.66,-3.07,0.58,-7.01,-0.85,-4.63,0,0,0,-7.76,-0.63,-5.95,9.50341320037842
,0,0.37,0.81,-0.22,0.4,-0.54,-3.34,0.62,-7.36,-1.42,-4.81,0,0,0,-7.95,-0.55,-5.7,9.52057337760925
,0,0.36,0.79,-0.23,0.43,-0.24,-3.55,0.6,-8.19,-1.12,-5.24,0,0,0,-8.32,-0.42,-5.15,9.53841161727905
,0,0.36,0.78,-0.24,0.46,-0.07,-3.72,0.57,-8.86,-0.59,-5.54,0,0,0,-8.67,-0.32,-4.55,9.55668067932129
,0,0.36,0.76,-0.25,0.49,-0.07,-3.78,0.56,-9.53,0.21,-5.67,0,0,0,-8.99,-0.21,-3.9,9.57294321060181
,0,0.35,0.75,-0.25,0.51,-0.31,-3.91,0.54,-9.72,0.96,-5.96,0,0,0,-9.13,-0.16,-3.55,9.58986496925354
,0,0.34,0.73,-0.26,0.54,-0.84,-4.01,0.52,-10.06,0.75,-7.07,0,0,0,-9.38,-0.02,-2.84,9.61014294624329
,0,0.33,0.71,-0.26,0.57,-1.34,-3.95,0.47,-10.39,0.55,-7.07,0,0,0,-9.57,0.12,-2.11,9.6248414516449
,0,0.32,0.7,-0.26,0.59,-1.53,-3.91,0.41,-10.49,0.05,-7.27,0,0,0,-9.64,0.19,-1.74,9.64145708084106
,0,0.3,0.67,-0.25,0.63,-1.72,-3.69,0.32,-10.58,-0.19,-7.68,0,0,0,-9.74,0.3,-1.03,9.66212344169617
,0,0.29,0.66,-0.25,0.65,-1.62,-3.32,0.22,-10.33,-0.23,-8.33,0,0,0,-9.79,0.36,-0.37,9.67704319953918
,0,0.27,0.64,-0.25,0.67,-1.47,-3.1,0.21,-9.69,0.16,-8.67,0,0,0,-9.79,0.41,0.19,9.69269609451294
,0,0.26,0.63,-0.25,0.69,-1.17,-2.47,0.28,-7.46,-0.38,-9.49,0,0,0,-9.78,0.43,0.43,9.71221303939819
,0,0.26,0.63,-0.25,0.69,-0.69,-1.54,0.35,-6.29,-0.16,-9.39,0,0,0,-9.76,0.48,0.77,9.72711849212646
,0,0.26,0.62,-0.24,0.7,-0.38,-1.03,0.4,-6.1,0,-9.21,0,0,0,-9.74,0.56,0.92,9.74290084838867
,0,0.26,0.62,-0.24,0.7,0.03,-0.02,0.33,-5.96,0.73,-8.83,0,0,0,-9.74,0.59,0.93,9.76237010955811
,0,0.26,0.62,-0.24,0.69,0.33,0.85,0.15,-16.37,-0.27,6.38,0,0,0,-9.75,0.63,0.8,9.77715802192688
,0,0.27,0.63,-0.24,0.69,0.6,0.68,0.07,-10.45,-1.32,5.63,0,0,0,-9.76,0.65,0.68,9.79384803771973
,0,0.27,0.63,-0.24,0.69,0.15,0.68,0.05,-10.9,-0.18,2.67,0,0,0,-9.76,0.65,0.54,9.81317830085754
,0,0.27,0.63,-0.24,0.68,-0.12,0.96,-0.09,-10.38,-2.59,-1.25,0,0,0,-9.77,0.64,0.45,9.82799696922302
,0,0.27,0.64,-0.24,0.67,0.14,1.15,-0.08,-10.94,-1.48,-0.57,0,0,0,-9.78,0.63,0.22,9.8436918258667
,0,0.28,0.65,-0.23,0.67,0.13,1.32,-0.05,-10.12,2.24,-0.1,0,0,0,-9.78,0.62,-0.02,9.86266684532166
,0,0.28,0.66,-0.23,0.66,-0.54,1.32,-0.05,-8.51,4.93,-2.73,0,0,0,-9.78,0.62,-0.14,9.877690076828
,0,0.27,0.67,-0.22,0.66,-0.99,1.27,-0.08,-9.49,3.89,-2.49,0,0,0,-9.78,0.6,-0.36,9.89354944229126
,0,0.26,0.68,-0.21,0.65,-1.56,1.11,-0.1,-9.43,0.89,-2.23,0,0,0,-9.77,0.6,-0.55,9.91285514831543
,0,0.26,0.68,-0.2,0.65,-1.24,1.02,-0.11,-9.96,-2.16,-1.38,0,0,0,-9.76,0.59,-0.64,9.9282910823822
,0,0.26,0.69,-0.2,0.65,-0.7,0.98,-0.07,-9.73,-2.65,-1.2,0,0,0,-9.75,0.59,-0.82,9.94359636306763
,0,0.26,0.69,-0.2,0.64,0.3,0.98,0.06,-9.34,-0.67,-1.96,0,0,0,-9.73,0.6,-1,9.96237444877625
,0,0.27,0.7,-0.2,0.64,0.45,0.93,0.15,-10.16,0.72,-1.44,0,0,0,-9.72,0.61,-1.09,9.97759509086609
,0,0.27,0.7,-0.2,0.63,0.27,0.93,0.18,-10.24,1.64,-1.38,0,0,0,-9.7,0.64,-1.27,9.99356579780579
,0,0.27,0.71,-0.19,0.62,-0.33,0.96,0.13,-9.53,2.48,-2.34,0,0,0,-9.67,0.67,-1.45,10.0127012729645
,0,0.27,0.71,-0.19,0.62,-0.65,0.94,0.08,-9.54,1.68,-2.19,0,0,0,-9.66,0.69,-1.53,10.0275559425354
,0,0.27,0.72,-0.18,0.62,-0.67,0.9,0.07,-9.42,1.55,-2.56,0,0,0,-9.63,0.72,-1.69,10.0427770614624
,0,0.26,0.72,-0.17,0.61,-0.45,0.84,0.04,-9.92,0.76,-3.41,0,0,0,-9.6,0.74,-1.84,10.062771320343
,0,0.26,0.73,-0.17,0.61,-0.21,0.77,0.04,-9.97,1.14,-3.09,0,0,0,-9.58,0.75,-1.91,10.0775599479675
,0,0.26,0.73,-0.17,0.61,-0.19,0.71,0.06,-10.27,1.1,-2.89,0,0,0,-9.57,0.76,-1.97,10.0929546356201
,0,0.26,0.73,-0.16,0.6,-0.24,0.58,0.02,-9.86,0.37,-3.25,0,0,0,-9.55,0.77,-2.08,10.1121940612793
,0,0.26,0.74,-0.16,0.6,-0.08,0.5,0.04,-9.63,0.29,-2.78,0,0,0,-9.52,0.78,-2.18,10.1272659301758
,0,0.27,0.74,-0.16,0.6,0.05,0.45,0.06,-9.38,0.56,-3.01,0,0,0,-9.51,0.79,-2.22,10.1427021026611
,0,0.27,0.74,-0.16,0.6,0.2,0.35,0.09,-9.31,0.86,-3.03,0,0,0,-9.5,0.8,-2.29,10.1628003120422
,0,0.27,0.74,-0.16,0.59,0.26,0.3,0.09,-9.36,0.8,-2.44,0,0,0,-9.48,0.8,-2.35,10.1773788928986
,0,0.27,0.74,-0.16,0.59,0.27,0.28,0.1,-9.47,0.93,-2.23,0,0,0,-9.46,0.81,-2.41,10.1925404071808
,0,0.27,0.74,-0.16,0.59,0.14,0.31,0.09,-9.25,1.53,-2.61,0,0,0,-9.45,0.82,-2.47,10.2128536701202
,0,0.27,0.74,-0.16,0.59,-0.09,0.3,0.05,-9.15,1.49,-2.55,0,0,0,-9.44,0.83,-2.49,10.2270886898041
,0,0.27,0.75,-0.16,0.59,-0.14,0.28,0.04,-9.05,1.18,-2.8,0,0,0,-9.43,0.84,-2.54,10.242823600769
,0,0.27,0.75,-0.16,0.59,-0.08,0.27,0.05,-9.36,0.95,-2.68,0,0,0,-9.41,0.85,-2.59,10.262316942215
,0,0.27,0.75,-0.16,0.59,0.03,0.26,0.07,-9.56,1.07,-2.9,0,0,0,-9.41,0.86,-2.61,10.2773368358612
,0,0.28,0.75,-0.16,0.58,0.06,0.25,0.07,-9.7,1,-2.79,0,0,0,-9.39,0.87,-2.66,10.2928721904755
,0,0.28,0.75,-0.15,0.58,0.09,0.25,0.06,-9.63,0.7,-2.9,0,0,0,-9.39,0.87,-2.68,10.3129651546478
,0,0.28,0.75,-0.15,0.58,0.15,0.27,0.07,-9.77,0.6,-2.58,0,0,0,-9.37,0.88,-2.73,10.3271973133087
,0,0.28,0.75,-0.15,0.58,0.17,0.29,0.08,-9.55,0.66,-2.7,0,0,0,-9.35,0.88,-2.79,10.3429172039032
,0,0.28,0.75,-0.15,0.57,0.21,0.33,0.09,-9.36,1.11,-2.66,0,0,0,-9.33,0.89,-2.86,10.3627202510834
,0,0.28,0.75,-0.15,0.57,0.17,0.39,0.07,-9.1,1.21,-2.42,0,0,0,-9.32,0.89,-2.89,10.3774468898773
,0,0.28,0.76,-0.15,0.57,0.15,0.42,0.05,-9.39,1.41,-2.21,0,0,0,-9.3,0.89,-2.97,10.3934729099274
,0,0.29,0.76,-0.15,0.57,0.14,0.49,0.02,-9.34,1.11,-2.53,0,0,0,-9.28,0.88,-3.02,10.4129312038422
,0,0.29,0.76,-0.15,0.56,0.19,0.57,-0,-9.28,0.97,-2.77,0,0,0,-9.25,0.88,-3.11,10.4275376796722
,0,0.29,0.76,-0.15,0.56,0.22,0.62,-0.02,-9.4,0.87,-2.66,0,0,0,-9.21,0.86,-3.23,10.4437563419342
,0,0.29,0.77,-0.15,0.55,0.3,0.71,-0.03,-9.48,0.89,-2.55,0,0,0,-9.17,0.83,-3.37,10.4630720615387
,0,0.29,0.77,-0.16,0.55,0.38,0.83,-0.08,-9.79,1.75,-2.44,0,0,0,-9.14,0.81,-3.44,10.4779784679413
,0,0.3,0.77,-0.16,0.54,0.4,0.9,-0.1,-10.68,2.19,-2.19,0,0,0,-9.08,0.77,-3.61,10.4937629699707
,0,0.3,0.78,-0.16,0.53,0.36,1,-0.13,-10.45,1.81,-2.55,0,0,0,-9.01,0.71,-3.8,10.5137414932251
,0,0.3,0.78,-0.16,0.53,0.49,1.12,-0.19,-10.49,1.62,-2.13,0,0,0,-8.96,0.68,-3.9,10.5280623435974
,0,0.3,0.79,-0.16,0.51,0.52,1.18,-0.21,-10.43,1.97,-2.17,0,0,0,-8.87,0.6,-4.12,10.5436563491821
,0,0.3,0.79,-0.16,0.5,0.46,1.33,-0.26,-10.65,0.71,-2.41,0,0,0,-8.76,0.52,-4.36,10.5635159015656
,0,0.31,0.8,-0.16,0.5,0.53,1.53,-0.29,-10.88,0.02,-2.02,0,0,0,-8.7,0.47,-4.49,10.5779576301575
,0,0.31,0.8,-0.16,0.48,0.61,1.64,-0.29,-11.34,0,-1.93,0,0,0,-8.55,0.36,-4.78,10.5940232276917
,0,0.31,0.81,-0.16,0.46,0.77,1.83,-0.28,-11.38,-0.43,-2.46,0,0,0,-8.37,0.24,-5.09,10.6138474941254
,0,0.32,0.82,-0.16,0.45,0.99,2.02,-0.23,-12.27,-1.5,-2.05,0,0,0,-8.27,0.17,-5.26,10.6284320354462
,0,0.32,0.83,-0.17,0.43,1.17,2.11,-0.23,-12.51,-1.44,-1.88,0,0,0,-8.04,0,-5.6,10.6439445018768
,0,0.33,0.83,-0.18,0.41,1.57,2.27,-0.21,-12.31,-1.11,-2.69,0,0,0,-7.78,-0.2,-5.95,10.663583278656
,0,0.34,0.84,-0.18,0.39,1.73,2.44,-0.23,-12.12,-0.06,-3.11,0,0,0,-7.64,-0.32,-6.13,10.6787116527557
,0,0.35,0.84,-0.19,0.37,1.71,2.48,-0.24,-10.98,0.98,-5.06,0,0,0,-7.33,-0.56,-6.48,10.6943817138672
,0,0.35,0.85,-0.19,0.34,1.41,2.51,-0.22,-12.88,2.76,-5.88,0,0,0,-7.01,-0.76,-6.8,10.7139053344727
,0,0.36,0.85,-0.19,0.33,0.93,2.33,-0.26,-10.76,1.36,-7.43,0,0,0,-6.86,-0.83,-6.95,10.7288105487823
,0,0.36,0.86,-0.19,0.31,0.69,2.3,-0.25,-9.38,1.71,-8.08,0,0,0,-6.54,-0.94,-7.24,10.7443244457245
,0,0.36,0.87,-0.18,0.29,0.17,2.12,-0.13,-8.65,0.57,-8.7,0,0,0,-6.25,-0.95,-7.48,10.7638833522797
,0,0.36,0.87,-0.17,0.29,-0.48,1.45,0,-8.63,0.13,-4.5,0,0,0,-6.15,-0.92,-7.57,10.7790305614471
,0,0.37,0.87,-0.17,0.28,-0.46,1.09,0.17,-7.41,0.21,-1.7,0,0,0,-6.02,-0.83,-7.69,10.7940950393677
,0,0.37,0.87,-0.17,0.28,-0.17,0.27,0.34,-6.55,-0.87,-1.61,0,0,0,-6.01,-0.78,-7.7,10.8138771057129
,0,0.37,0.87,-0.17,0.28,0.26,-0.38,0.29,-5.34,-1.68,-2.62,0,0,0,-6.04,-0.78,-7.67,10.8287303447723
,0,0.38,0.86,-0.18,0.29,0.61,-0.67,0.25,-5.15,-1.02,-2.46,0,0,0,-6.17,-0.86,-7.57,10.844477891922
,0,0.38,0.86,-0.19,0.3,0.97,-1.22,0.2,-4.87,-0.79,-2.59,0,0,0,-6.36,-0.98,-7.39,10.8644127845764
,0,0.38,0.85,-0.2,0.3,0.89,-1.74,0.22,-4.48,-0.21,-3.19,0,0,0,-6.49,-1.03,-7.27,10.8791952133179
,0,0.38,0.84,-0.21,0.32,0.79,-2,0.26,-4.67,0.47,-3.47,0,0,0,-6.79,-1.09,-6.98,10.8952317237854
,0,0.38,0.83,-0.22,0.34,0.41,-2.49,0.41,-5.06,1.21,-3.57,0,0,0,-7.14,-1.06,-6.62,10.9137315750122
,0,0.38,0.83,-0.22,0.35,-0.28,-2.93,0.6,-5.48,1.06,-4,0,0,0,-7.34,-1,-6.42,10.9285414218903
,0,0.37,0.82,-0.23,0.38,-0.54,-3.14,0.67,-6.64,-0.21,-4.7,0,0,0,-7.73,-0.82,-5.96,10.9449717998505
,0,0.37,0.8,-0.23,0.41,-0.77,-3.47,0.78,-6.99,-0.73,-4.96,0,0,0,-8.14,-0.62,-5.43,10.9644641876221
,0,0.37,0.79,-0.23,0.43,-0.62,-3.69,0.81,-8.07,-1.6,-5.36,0,0,0,-8.33,-0.52,-5.14,10.9787111282349
,0,0.36,0.77,-0.24,0.46,-0.47,-3.77,0.8,-8.75,-1.64,-5.79,0,0,0,-8.69,-0.36,-4.51,10.9949662685394
,0,0.36,0.75,-0.25,0.49,-0.09,-3.89,0.73,-9.46,-1.02,-6.27,0,0,0,-9.01,-0.23,-3.84,11.0148363113403
,0,0.36,0.74,-0.26,0.51,0.1,-3.94,0.7,-9.86,0.01,-6.29,0,0,0,-9.15,-0.17,-3.49,11.0295164585114
,0,0.35,0.72,-0.26,0.54,0.02,-3.95,0.71,-9.96,0.89,-6.98,0,0,0,-9.4,-0.04,-2.79,11.0451986789703
,0,0.34,0.7,-0.27,0.57,-0.41,-3.89,0.7,-10.04,0.89,-7.33,0,0,0,-9.58,0.1,-2.08,11.0642685890198
,0,0.34,0.69,-0.27,0.58,-0.95,-3.7,0.63,-10.18,0.33,-7.43,0,0,0,-9.64,0.18,-1.73,11.0788283348083
,0,0.33,0.67,-0.27,0.61,-1.15,-3.56,0.58,-9.76,0.17,-7.15,0,0,0,-9.74,0.31,-1.07,11.0953779220581
,0,0.31,0.65,-0.27,0.63,-1.3,-3.24,0.46,-9.96,-0.05,-7.14,0,0,0,-9.78,0.42,-0.47,11.1150476932526
,0,0.31,0.65,-0.27,0.65,-1.25,-2.8,0.35,-9.72,-0.12,-7.53,0,0,0,-9.79,0.45,-0.2,11.1295557022095
,0,0.29,0.63,-0.27,0.66,-1.19,-2.56,0.31,-8.36,-0.1,-8.11,0,0,0,-9.78,0.51,0.26,11.1455733776093
,0,0.28,0.62,-0.27,0.68,-0.99,-2,0.22,-8.12,-0.14,-7.9,0,0,0,-9.77,0.54,0.62,11.1647276878357
,0,0.28,0.62,-0.27,0.68,-0.68,-1.24,0.2,-7.3,0.15,-7.81,0,0,0,-9.76,0.55,0.74,11.179488658905
,0,0.28,0.62,-0.26,0.69,-0.57,-0.81,0.18,-6.68,0.56,-7.7,0,0,0,-9.75,0.58,0.86,11.1960356235504
,0,0.28,0.62,-0.26,0.69,-0.38,0.01,0.13,-6.61,0.76,-7.63,0,0,0,-9.75,0.59,0.82,11.2144396305084
,0,0.28,0.62,-0.26,0.69,-0.33,0.77,-0.01,-10.06,1.39,-3.69,0,0,0,-9.75,0.59,0.75,11.2291276454926
,0,0.28,0.62,-0.26,0.68,0.08,0.69,0,-15.1,-0.91,9.01,0,0,0,-9.76,0.59,0.65,11.2455565929413
,0,0.28,0.63,-0.25,0.68,-0.24,0.41,0.04,-10.35,-1.28,3.1,0,0,0,-9.77,0.59,0.56,11.264475107193
,0,0.28,0.63,-0.25,0.68,-0.47,0.7,-0.13,-10.98,-3.55,-0.07,0,0,0,-9.77,0.57,0.5,11.2792539596558
,0,0.28,0.64,-0.25,0.67,-0.24,0.9,-0.08,-11.08,-1.47,-0.37,0,0,0,-9.78,0.56,0.31,11.2961242198944
,0,0.28,0.65,-0.24,0.67,0.05,1.13,-0.02,-11.2,0.16,-0.11,0,0,0,-9.78,0.56,0.1,11.3143153190613
,0,0.28,0.65,-0.24,0.66,-0.29,1.11,0.05,-9.13,3.18,-2.38,0,0,0,-9.79,0.56,0,11.3289799690247
,0,0.28,0.66,-0.23,0.66,-0.67,1.08,0.05,-9.42,3.83,-3.76,0,0,0,-9.78,0.58,-0.18,11.3454492092133
,0,0.27,0.67,-0.22,0.66,-1.32,0.98,0.03,-10.51,0.86,-1.67,0,0,0,-9.78,0.59,-0.35,11.3649578094482
,0,0.27,0.67,-0.22,0.66,-1.08,0.87,0.02,-9.8,0.11,-1.85,0,0,0,-9.77,0.59,-0.43,11.3791921138763
,0,0.27,0.68,-0.21,0.65,-0.73,0.83,-0.01,-9.67,-1.6,-1.05,0,0,0,-9.77,0.6,-0.58,11.3956224918365
,0,0.27,0.68,-0.21,0.65,0.26,0.81,0.04,-9.44,-1.31,-1.49,0,0,0,-9.75,0.6,-0.73,11.4146947860718
,0,0.28,0.68,-0.21,0.64,0.72,0.81,0.08,-9.84,0.56,-0.87,0,0,0,-9.75,0.6,-0.81,11.4294309616089
,0,0.28,0.69,-0.21,0.64,0.64,0.81,0.1,-9.97,2.13,-0.94,0,0,0,-9.73,0.62,-0.97,11.445698261261
,0,0.28,0.69,-0.21,0.63,-0.09,0.82,0.13,-9.73,2.52,-1.31,0,0,0,-9.71,0.65,-1.12,11.4650008678436
,0,0.28,0.69,-0.2,0.63,-0.95,0.82,0.07,-9.75,2.02,-1.6,0,0,0,-9.7,0.66,-1.2,11.4796304702759
,0,0.27,0.7,-0.19,0.63,-1.11,0.81,0.05,-9.4,0.74,-2.43,0,0,0,-9.68,0.69,-1.34,11.4962258338928
,0,0.27,0.71,-0.19,0.62,-0.88,0.86,0,-9.9,0.5,-2.32,0,0,0,-9.66,0.71,-1.49,11.5145826339722
,0,0.27,0.71,-0.18,0.62,-0.44,0.82,0,-9.92,0.88,-2.5,0,0,0,-9.65,0.72,-1.56,11.5292842388153
,0,0.27,0.72,-0.18,0.62,-0.37,0.78,0,-10.04,1.43,-2.59,0,0,0,-9.62,0.73,-1.7,11.546005487442
,0,0.27,0.72,-0.17,0.61,-0.41,0.73,-0.01,-10.13,0.15,-2.28,0,0,0,-9.6,0.74,-1.83,11.565283536911
,0,0.27,0.73,-0.17,0.61,-0.28,0.69,-0.04,-9.95,0.16,-2.07,0,0,0,-9.59,0.74,-1.89,11.5796711444855
,0,0.27,0.73,-0.17,0.61,-0.13,0.65,-0.02,-9.58,0.34,-2.32,0,0,0,-9.56,0.74,-2,11.5957307815552
,0,0.27,0.73,-0.17,0.6,0.13,0.58,0.03,-9.48,1.17,-2.46,0,0,0,-9.54,0.74,-2.11,11.6154968738556
,0,0.27,0.73,-0.17,0.6,0.07,0.51,0.02,-9.44,1.06,-2.59,0,0,0,-9.53,0.74,-2.16,11.6299738883972
,0,0.27,0.74,-0.17,0.6,0,0.47,0.02,-9.51,0.99,-2.34,0,0,0,-9.51,0.75,-2.24,11.6462271213531
,0,0.27,0.74,-0.16,0.6,-0.15,0.41,0.02,-9.31,1.06,-2.48,0,0,0,-9.49,0.76,-2.31,11.6653423309326
,0,0.27,0.74,-0.16,0.59,-0.25,0.38,0.03,-9.08,1.01,-2.72,0,0,0,-9.48,0.77,-2.35,11.6802337169647
,0,0.27,0.74,-0.16,0.59,-0.33,0.39,0.03,-9.23,1.05,-2.89,0,0,0,-9.47,0.79,-2.41,11.6973283290863
,0,0.27,0.74,-0.16,0.59,-0.34,0.38,0.02,-9.4,0.99,-2.64,0,0,0,-9.45,0.81,-2.48,11.715678691864
,0,0.27,0.75,-0.15,0.59,-0.26,0.37,0.03,-9.09,1.04,-3.03,0,0,0,-9.44,0.82,-2.51,11.7294900417328
,0,0.27,0.75,-0.15,0.59,-0.19,0.37,0.04,-9.52,0.75,-2.79,0,0,0,-9.42,0.84,-2.58,11.745924949646
,0,0.27,0.75,-0.15,0.58,-0.08,0.37,0.04,-9.65,0.72,-2.75,0,0,0,-9.4,0.85,-2.65,11.7651405334473
,0,0.27,0.75,-0.15,0.58,-0.01,0.39,0.04,-9.62,0.49,-2.77,0,0,0,-9.39,0.85,-2.68,11.7797966003418
,0,0.27,0.75,-0.15,0.58,0.06,0.4,0.06,-9.39,0.54,-2.79,0,0,0,-9.37,0.86,-2.75,11.7962689399719
,0,0.27,0.76,-0.15,0.58,0.07,0.41,0.07,-9.57,0.65,-2.57,0,0,0,-9.34,0.87,-2.83,11.8153092861176
,0,0.27,0.76,-0.15,0.58,0.07,0.45,0.07,-9.41,0.86,-2.69,0,0,0,-9.33,0.87,-2.87,11.829861164093
,0,0.27,0.76,-0.15,0.57,0.1,0.49,0.06,-9.53,1.22,-2.71,0,0,0,-9.3,0.88,-2.96,11.8463730812073
,0,0.27,0.76,-0.15,0.57,0.11,0.5,0.06,-9.5,1.38,-2.85,0,0,0,-9.27,0.88,-3.05,11.8652420043945
,0,0.28,0.76,-0.15,0.57,0.13,0.54,0.03,-9.36,1.34,-2.87,0,0,0,-9.25,0.88,-3.1,11.8799262046814
,0,0.28,0.77,-0.15,0.56,0.2,0.59,-0,-9.34,1.28,-2.9,0,0,0,-9.22,0.87,-3.21,11.8966081142426
,0,0.28,0.77,-0.15,0.56,0.22,0.63,-0.01,-9.33,1.23,-3.06,0,0,0,-9.18,0.86,-3.32,11.9146401882172
,0,0.28,0.77,-0.15,0.55,0.26,0.7,-0.02,-9.23,1.01,-3.23,0,0,0,-9.16,0.85,-3.38,11.9294700622559
,0,0.28,0.77,-0.15,0.55,0.32,0.77,-0.04,-9.46,0.52,-3.07,0,0,0,-9.11,0.83,-3.52,11.9468629360199
,0,0.29,0.78,-0.15,0.54,0.37,0.84,-0.06,-10.25,1.86,-2.94,0,0,0,-9.05,0.79,-3.68,11.9654443264008
,0,0.29,0.78,-0.15,0.54,0.37,0.94,-0.08,-11.12,1.46,-2.22,0,0,0,-9.01,0.77,-3.77,11.979884147644
,0,0.29,0.79,-0.15,0.53,0.49,1.07,-0.13,-10.79,1.37,-1.94,0,0,0,-8.94,0.71,-3.95,11.9965281486511
,0,0.29,0.79,-0.15,0.52,0.51,1.14,-0.16,-10.65,2.04,-2.47,0,0,0,-8.85,0.64,-4.16,12.0150120258331
,0,0.29,0.79,-0.15,0.51,0.43,1.32,-0.22,-11.59,1.48,-1.86,0,0,0,-8.8,0.61,-4.28,12.0301420688629
,0,0.3,0.8,-0.15,0.5,0.47,1.4,-0.23,-11.45,0.33,-2.35,0,0,0,-8.68,0.53,-4.52,12.0471169948578
,0,0.3,0.81,-0.15,0.48,0.78,1.64,-0.2,-11.92,-1.4,-1.86,0,0,0,-8.53,0.42,-4.81,12.065559387207
,0,0.31,0.81,-0.16,0.47,1.18,1.92,-0.17,-12.15,-1.75,-1.6,0,0,0,-8.44,0.35,-4.98,12.0801606178284
,0,0.31,0.82,-0.16,0.45,1.39,2.07,-0.13,-12.85,-2.54,-1.38,0,0,0,-8.23,0.19,-5.32,12.0971412658691
,0,0.32,0.83,-0.17,0.43,1.62,2.2,-0.11,-12.48,-1.54,-1.7,0,0,0,-7.99,-0.01,-5.67,12.1163976192474
,0,0.33,0.83,-0.17,0.41,2.03,2.36,-0.1,-11.4,-0.12,-3.13,0,0,0,-7.86,-0.13,-5.85,12.1308424472809
,0,0.34,0.84,-0.18,0.39,1.99,2.47,-0.14,-11.2,0.89,-3.83,0,0,0,-7.57,-0.38,-6.21,12.147881269455
,0,0.35,0.84,-0.19,0.36,1.84,2.46,-0.21,-10.81,2.34,-6.96,0,0,0,-7.27,-0.63,-6.54,12.1666104793549
,0,0.35,0.85,-0.19,0.35,1.42,2.44,-0.29,-11.56,2.76,-6.68,0,0,0,-7.11,-0.74,-6.7,12.1812818050385
,0,0.36,0.85,-0.19,0.33,0.88,2.38,-0.25,-9.65,1.02,-7.15,0,0,0,-6.79,-0.89,-7.01,12.1987326145172
,0,0.36,0.86,-0.19,0.3,0.63,2.3,-0.23,-8.68,1.34,-7.2,0,0,0,-6.47,-0.99,-7.29,12.2167694568634
,0,0.36,0.86,-0.18,0.3,0,2.05,-0.18,-9.11,0.46,-5.49,0,0,0,-6.32,-1,-7.42,12.2307066917419
,0,0.36,0.87,-0.18,0.28,-0.39,1.42,-0.01,-8.43,0.74,-2.33,0,0,0,-6.09,-0.96,-7.62,12.2487115859985
,0,0.37,0.87,-0.17,0.28,-0.29,1.04,0.16,-7.08,-0.51,-1.76,0,0,0,-5.97,-0.9,-7.72,12.2664711475372
,0,0.37,0.87,-0.17,0.28,-0.13,0.28,0.25,-6.48,-1.02,-2.21,0,0,0,-5.95,-0.88,-7.74,12.2810878753662
,0,0.37,0.87,-0.17,0.28,0.16,-0.38,0.18,-6.08,-0.9,-3,0,0,0,-5.99,-0.87,-7.71,12.2984569072723
,0,0.37,0.87,-0.18,0.28,0.39,-0.66,0.16,-5.53,-0.38,-3.19,0,0,0,-6.11,-0.92,-7.61,12.3166544437408
,0,0.37,0.86,-0.18,0.29,0.6,-1.2,0.1,-5.18,-0.06,-3.37,0,0,0,-6.2,-0.95,-7.53,12.3308432102203
,0,0.37,0.86,-0.19,0.3,0.6,-1.69,0.13,-5.54,0.6,-3.74,0,0,0,-6.43,-1.03,-7.33,12.3486883640289
,0,0.37,0.85,-0.2,0.32,0.41,-2.21,0.24,-5.86,0.95,-4.04,0,0,0,-6.72,-1.07,-7.05,12.3668420314789
,0,0.37,0.84,-0.21,0.33,0.21,-2.42,0.31,-6.23,0.76,-4.3,0,0,0,-6.89,-1.06,-6.89,12.3811101913452
,0,0.37,0.83,-0.21,0.35,-0.17,-2.78,0.48,-6.85,0.15,-4.56,0,0,0,-7.25,-0.99,-6.52,12.3989081382751
,0,0.37,0.82,-0.22,0.37,-0.35,-3.08,0.61,-7.69,-0.69,-5.16,0,0,0,-7.62,-0.86,-6.1,12.4175074100494
,0,0.36,0.82,-0.22,0.39,-0.36,-3.19,0.65,-7.92,-0.85,-5.17,0,0,0,-7.81,-0.8,-5.86,12.4317047595978
,0,0.36,0.8,-0.23,0.42,-0.28,-3.38,0.66,-8.19,-0.91,-5.63,0,0,0,-8.19,-0.66,-5.35,12.4498789310455
,0,0.36,0.79,-0.24,0.45,-0.16,-3.52,0.62,-8.63,-0.96,-5.9,0,0,0,-8.54,-0.54,-4.78,12.4670855998993
,0,0.36,0.78,-0.24,0.46,-0.08,-3.58,0.6,-9.07,-0.46,-6.05,0,0,0,-8.7,-0.48,-4.48,12.4817407131195
,0,0.35,0.76,-0.25,0.49,0.08,-3.68,0.62,-9.46,0.36,-6.16,0,0,0,-9,-0.38,-3.86,12.5000612735748
,0,0.35,0.74,-0.26,0.52,-0.04,-3.77,0.66,-9.37,0.86,-6.83,0,0,0,-9.26,-0.27,-3.19,12.5187349319458
,0,0.34,0.73,-0.27,0.53,-0.21,-3.76,0.68,-9.54,0.86,-7.07,0,0,0,-9.37,-0.2,-2.85,12.5334048271179
,0,0.34,0.71,-0.27,0.56,-0.63,-3.62,0.67,-9.89,-0.03,-7.32,0,0,0,-9.55,-0.05,-2.18,12.551084280014
,0,0.33,0.69,-0.27,0.59,-0.97,-3.39,0.64,-9.33,0.23,-7.34,0,0,0,-9.68,0.09,-1.54,12.5693624019623
,0,0.32,0.67,-0.27,0.61,-1.06,-3.29,0.61,-9.24,0.03,-7.7,0,0,0,-9.72,0.16,-1.23,12.5839421749115
,0,0.31,0.66,-0.27,0.63,-1.13,-2.9,0.56,-9.3,-0.31,-7.71,0,0,0,-9.77,0.29,-0.66,12.6020712852478
,0,0.3,0.65,-0.27,0.65,-0.99,-2.42,0.47,-8.85,0.36,-7.01,0,0,0,-9.79,0.39,-0.17,12.6207439899445
,0,0.29,0.64,-0.27,0.66,-0.91,-2.17,0.41,-7.78,0.13,-7.66,0,0,0,-9.79,0.47,0.22,12.6361742019653
,0,0.29,0.63,-0.26,0.67,-0.76,-1.6,0.32,-7.68,0.02,-7.73,0,0,0,-9.78,0.5,0.37,12.6548790931702
,0,0.28,0.62,-0.26,0.68,-0.53,-0.84,0.23,-6.86,0.51,-7.57,0,0,0,-9.77,0.54,0.58,12.6728186607361
,0,0.28,0.62,-0.26,0.68,-0.39,-0.02,0.18,-7.79,1.03,-7,0,0,0,-9.76,0.57,0.62,12.687730550766
,0,0.28,0.63,-0.26,0.68,-0.31,0.36,0.14,-15.4,-0.65,3.63,0,0,0,-9.77,0.59,0.53,12.7064847946167
,0,0.28,0.63,-0.26,0.68,0.09,0.65,0.06,-15.36,-4.17,8.51,0,0,0,-9.77,0.6,0.46,12.724406003952
,0,0.28,0.63,-0.25,0.67,-0.05,0.66,-0.09,-12.58,-1.45,1.95,0,0,0,-9.78,0.59,0.36,12.7392904758453
,0,0.28,0.64,-0.25,0.67,-0.32,0.96,-0.14,-9.94,-0.29,-2.24,0,0,0,-9.78,0.56,0.19,12.7572131156921
,0,0.28,0.65,-0.25,0.66,-0.21,1.13,-0.12,-11.09,-0.15,-1.26,0,0,0,-9.79,0.55,0.09,12.7748093605042
,0,0.29,0.65,-0.25,0.66,-0.28,1.22,-0.04,-10.52,0.32,-0.77,0,0,0,-9.79,0.53,-0.13,12.7897934913635
,0,0.28,0.66,-0.24,0.65,-0.72,1.22,0.02,-9.87,2.82,-4.18,0,0,0,-9.78,0.54,-0.36,12.8083810806274
,0,0.28,0.67,-0.23,0.65,-0.96,1.14,0,-10.47,2.38,-2.81,0,0,0,-9.77,0.55,-0.55,12.825302362442
,0,0.28,0.67,-0.22,0.65,-1.11,0.91,0.06,-9.84,-0.19,-2.28,0,0,0,-9.76,0.56,-0.63,12.8420569896698
,0,0.28,0.68,-0.22,0.64,-0.54,0.79,0.07,-10.37,-1.05,-1.59,0,0,0,-9.75,0.59,-0.77,12.8592123985291
,0,0.28,0.69,-0.21,0.64,-0.08,0.77,0.06,-9.86,-0.55,-1.55,0,0,0,-9.74,0.6,-0.92,12.8758046627045
,0,0.28,0.69,-0.22,0.63,0.62,0.74,0.08,-9.37,0.17,-1.52,0,0,0,-9.73,0.6,-0.99,12.8910546302795
,0,0.29,0.69,-0.22,0.63,0.68,0.73,0.1,-9.69,1.77,-1.21,0,0,0,-9.72,0.6,-1.14,12.9096124172211
,0,0.29,0.69,-0.22,0.62,0.51,0.72,0.13,-9.74,2.1,-1.14,0,0,0,-9.7,0.62,-1.28,12.9257428646088
,0,0.29,0.7,-0.21,0.62,-0.18,0.72,0.11,-9.84,2.1,-1.36,0,0,0,-9.69,0.63,-1.34,12.940646648407
,0,0.29,0.7,-0.21,0.62,-0.76,0.74,0.07,-9.71,1.72,-1.48,0,0,0,-9.67,0.66,-1.47,12.9598813056946
,0,0.29,0.71,-0.2,0.61,-0.84,0.73,0.04,-9.79,1.14,-1.66,0,0,0,-9.64,0.69,-1.6,12.9765150547028
,0,0.29,0.71,-0.2,0.61,-0.67,0.73,-0,-9.73,1.22,-2.09,0,0,0,-9.63,0.7,-1.66,12.9914994239807
,0,0.29,0.71,-0.19,0.61,-0.39,0.69,0.03,-9.94,1.73,-2.2,0,0,0,-9.61,0.72,-1.79,13.0096764564514
,0,0.28,0.72,-0.19,0.61,-0.4,0.68,0.02,-9.69,0.98,-2.27,0,0,0,-9.58,0.74,-1.91,13.0260334014893
,0,0.28,0.72,-0.18,0.6,-0.46,0.63,-0.03,-9.84,0.49,-2.58,0,0,0,-9.57,0.75,-1.96,13.0414955615997
,0,0.28,0.73,-0.18,0.6,-0.33,0.61,-0.03,-9.86,-0.02,-2.32,0,0,0,-9.55,0.75,-2.07,13.0605010986328
,0,0.28,0.73,-0.18,0.6,-0.18,0.59,-0.01,-9.66,0.7,-2.46,0,0,0,-9.53,0.76,-2.18,13.0768926143646
,0,0.28,0.73,-0.18,0.6,0.11,0.54,0.02,-9.53,1.12,-2.5,0,0,0,-9.51,0.76,-2.23,13.0908963680267
,0,0.29,0.73,-0.18,0.59,0.11,0.48,0.02,-9.37,1.54,-2.41,0,0,0,-9.49,0.76,-2.32,13.1094243526459
,0,0.29,0.74,-0.18,0.59,-0,0.45,0.02,-9.08,1.35,-2.56,0,0,0,-9.47,0.76,-2.4,13.1260552406311
,0,0.29,0.74,-0.17,0.59,-0.11,0.4,0.02,-9.19,1.31,-2.6,0,0,0,-9.46,0.77,-2.43,13.1407024860382
,0,0.28,0.74,-0.17,0.59,-0.27,0.36,-0.01,-9.44,0.6,-2.69,0,0,0,-9.45,0.78,-2.49,13.1588907241821
,0,0.28,0.74,-0.17,0.58,-0.25,0.33,0.01,-9.26,0.66,-2.81,0,0,0,-9.43,0.79,-2.55,13.1761553287506
,0,0.28,0.74,-0.17,0.58,-0.18,0.31,0.03,-9.39,0.88,-2.7,0,0,0,-9.42,0.8,-2.58,13.1908497810364
,0,0.28,0.74,-0.17,0.58,-0.13,0.3,0.04,-9.52,0.99,-2.83,0,0,0,-9.41,0.81,-2.63,13.2077467441559
,0,0.28,0.75,-0.16,0.58,-0.13,0.29,0.04,-9.56,0.9,-2.78,0,0,0,-9.4,0.82,-2.66,13.2249593734741
,0,0.28,0.75,-0.16,0.58,-0.08,0.28,0.05,-9.73,0.93,-2.62,0,0,0,-9.38,0.83,-2.71,13.2397356033325
,0,0.28,0.75,-0.16,0.58,-0.06,0.27,0.05,-9.62,0.75,-2.64,0,0,0,-9.37,0.85,-2.75,13.2575407028198
,0,0.28,0.75,-0.16,0.58,-0.04,0.28,0.05,-9.48,0.89,-2.55,0,0,0,-9.36,0.85,-2.78,13.2746889591217
,0,0.29,0.75,-0.16,0.57,0.03,0.31,0.05,-9.29,0.84,-2.28,0,0,0,-9.34,0.86,-2.83,13.2897040843964
,0,0.29,0.75,-0.16,0.57,0.06,0.33,0.05,-9.52,1.14,-2.08,0,0,0,-9.32,0.87,-2.9,13.3067181110382
,0,0.29,0.75,-0.16,0.57,0.12,0.43,0.05,-9.33,1.23,-2.39,0,0,0,-9.31,0.87,-2.94,13.3250348567963
,0,0.29,0.76,-0.16,0.57,0.14,0.53,0.03,-9.22,1.36,-2.53,0,0,0,-9.28,0.87,-3.03,13.3399710655212
,0,0.29,0.76,-0.16,0.56,0.15,0.58,0.02,-9.27,1.3,-2.62,0,0,0,-9.24,0.86,-3.14,13.3573694229126
,0,0.29,0.76,-0.16,0.56,0.16,0.69,-0.02,-9.42,1.46,-2.51,0,0,0,-9.22,0.85,-3.2,13.3755016326904
,0,0.29,0.76,-0.16,0.55,0.18,0.76,-0.05,-9.7,1.23,-2.3,0,0,0,-9.18,0.85,-3.31,13.3905375003815
,0,0.3,0.77,-0.16,0.55,0.25,0.84,-0.06,-9.75,1.03,-2.82,0,0,0,-9.13,0.82,-3.46,13.4090147018433
,0,0.3,0.77,-0.16,0.54,0.28,0.9,-0.07,-9.67,0.35,-2.7,0,0,0,-9.07,0.78,-3.63,13.4258012771606
,0,0.3,0.77,-0.16,0.53,0.4,1,-0.13,-10.52,1.08,-2.51,0,0,0,-9.03,0.76,-3.72,13.4411194324493
,0,0.3,0.78,-0.16,0.52,0.49,1.08,-0.14,-10.69,0.28,-2.32,0,0,0,-8.96,0.7,-3.91,13.4599907398224
,0,0.31,0.79,-0.16,0.51,0.62,1.15,-0.17,-10.54,0.4,-2.38,0,0,0,-8.87,0.62,-4.12,13.4762542247772
,0,0.31,0.79,-0.16,0.51,0.81,1.27,-0.22,-10.53,1.77,-2.46,0,0,0,-8.82,0.56,-4.24,13.4910209178925
,0,0.31,0.79,-0.16,0.49,0.65,1.46,-0.27,-10.89,1.5,-2.13,0,0,0,-8.7,0.46,-4.48,13.5105698108673
,0,0.32,0.8,-0.17,0.48,0.62,1.54,-0.29,-11.57,0.5,-1.84,0,0,0,-8.56,0.36,-4.75,13.5266170501709
,0,0.32,0.81,-0.17,0.47,0.74,1.75,-0.27,-11.58,0.19,-2.16,0,0,0,-8.48,0.3,-4.9,13.5413963794708
,0,0.32,0.81,-0.17,0.45,0.97,1.97,-0.21,-12.07,-0.35,-2.15,0,0,0,-8.29,0.18,-5.22,13.5607531070709
,0,0.33,0.82,-0.17,0.43,1.08,2.07,-0.18,-12.6,-1.11,-1.94,0,0,0,-8.07,0.03,-5.55,13.5769672393799
,0,0.33,0.83,-0.17,0.42,1.34,2.21,-0.19,-12.45,-1.26,-2.45,0,0,0,-7.95,-0.05,-5.72,13.5920054912567
,0,0.34,0.83,-0.18,0.4,1.66,2.28,-0.13,-11.82,0.4,-3.52,0,0,0,-7.69,-0.25,-6.06,13.6123197078705
,0,0.35,0.84,-0.19,0.37,1.7,2.29,-0.13,-10.85,0.86,-4.9,0,0,0,-7.42,-0.47,-6.38,13.6276412010193
,0,0.36,0.84,-0.19,0.36,1.46,2.26,-0.16,-10.01,1.55,-6.84,0,0,0,-7.28,-0.58,-6.54,13.6431932449341
,0,0.36,0.85,-0.19,0.34,1,2.37,-0.17,-10.85,1,-7.2,0,0,0,-6.97,-0.75,-6.85,13.6636266708374
,0,0.37,0.85,-0.19,0.32,0.74,2.29,-0.09,-9.14,1.28,-7.32,0,0,0,-6.66,-0.87,-7.14,13.67817735672
,0,0.37,0.86,-0.19,0.31,0.58,2.19,-0.04,-8.8,1.12,-7.24,0,0,0,-6.5,-0.91,-7.27,13.694226026535
,0,0.38,0.86,-0.18,0.29,0.09,1.73,0.08,-8.75,-0.75,-3.72,0,0,0,-6.23,-0.94,-7.5,13.7145051956177
,0,0.38,0.86,-0.18,0.28,0.05,1.03,0.27,-7.58,0.05,-2.32,0,0,0,-6.06,-0.91,-7.65,13.7288510799408
,0,0.38,0.86,-0.18,0.28,0.26,0.67,0.32,-6.72,-1.15,-2.14,0,0,0,-6.01,-0.91,-7.68,13.7439868450165
,0,0.39,0.86,-0.18,0.27,0.46,-0,0.28,-5.93,-1.34,-2.66,0,0,0,-5.99,-0.94,-7.69,13.7641322612762
,0,0.39,0.86,-0.19,0.28,0.73,-0.57,0.19,-5.57,-0.46,-2.98,0,0,0,-6.06,-1.01,-7.63,13.7789380550385
,0,0.39,0.85,-0.19,0.28,0.76,-0.84,0.14,-5.43,-0.23,-2.97,0,0,0,-6.13,-1.06,-7.57,13.7946116924286
,0,0.39,0.85,-0.2,0.29,0.64,-1.34,0.12,-5.33,0.24,-3.3,0,0,0,-6.31,-1.15,-7.41,13.8143150806427
,0,0.39,0.85,-0.21,0.3,0.27,-1.86,0.15,-5.6,0.68,-3.69,0,0,0,-6.55,-1.18,-7.19,13.8293430805206
,0,0.39,0.84,-0.22,0.32,0.05,-2.1,0.19,-5.81,0.71,-3.77,0,0,0,-6.7,-1.17,-7.05,13.8451619148254
,0,0.38,0.83,-0.22,0.34,-0.42,-2.52,0.3,-6.42,0.19,-4.32,0,0,0,-7.03,-1.1,-6.74,13.8649125099182
,0,0.38,0.83,-0.22,0.35,-0.67,-2.88,0.38,-7.1,-0.82,-4.85,0,0,0,-7.39,-0.97,-6.36,13.8794062137604
,0,0.37,0.81,-0.23,0.38,-0.7,-3.02,0.41,-7.35,-0.99,-4.93,0,0,0,-7.77,-0.82,-5.92,13.8962144851685
,0,0.37,0.8,-0.23,0.41,-0.57,-3.26,0.44,-7.77,-1.08,-5.18,0,0,0,-7.95,-0.76,-5.68,13.9151809215546
,0,0.36,0.79,-0.24,0.43,-0.42,-3.44,0.41,-8.52,-0.82,-5.57,0,0,0,-8.31,-0.65,-5.15,13.9306306838989
,0,0.36,0.78,-0.24,0.46,-0.34,-3.53,0.41,-8.81,-0.59,-5.7,0,0,0,-8.66,-0.55,-4.56,13.9466638565063
,0,0.35,0.76,-0.25,0.48,-0.25,-3.68,0.42,-9.46,0.17,-5.78,0,0,0,-8.81,-0.5,-4.25,13.965301990509
,0,0.35,0.75,-0.26,0.5,-0.32,-3.77,0.48,-9.97,0.75,-5.85,0,0,0,-9.1,-0.4,-3.6,13.9803152084351
,0,0.34,0.73,-0.26,0.53,-0.43,-3.8,0.52,-10.29,0.91,-6.04,0,0,0,-9.35,-0.27,-2.93,13.9965119361877
,0,0.33,0.71,-0.27,0.56,-0.7,-3.8,0.6,-10.15,0.89,-6.5,0,0,0,-9.45,-0.2,-2.58,14.0155053138733
,0,0.32,0.7,-0.27,0.58,-0.94,-3.66,0.62,-10.34,0.5,-6.33,0,0,0,-9.61,-0.05,-1.9,14.0301356315613
,0,0.31,0.68,-0.27,0.6,-0.99,-3.54,0.61,-10.44,0.53,-6.34,0,0,0,-9.72,0.09,-1.25,14.0464434623718
,0,0.3,0.67,-0.27,0.63,-1.07,-3.24,0.58,-10.25,0.19,-6.8,0,0,0,-9.75,0.15,-0.94,14.0658242702484
,0,0.3,0.66,-0.27,0.64,-0.98,-2.89,0.55,-10.15,0.2,-7.16,0,0,0,-9.79,0.27,-0.37,14.0807726383209
,0,0.29,0.64,-0.27,0.66,-0.82,-2.74,0.54,-9.31,0.36,-7.66,0,0,0,-9.79,0.38,0.12,14.0971760749817
,0,0.28,0.63,-0.27,0.67,-0.6,-2.15,0.51,-7.94,0.06,-8.12,0,0,0,-9.79,0.42,0.32,14.1153512001038
,0,0.28,0.62,-0.27,0.68,-0.3,-1.38,0.46,-6.73,0.53,-7.55,0,0,0,-9.77,0.51,0.63,14.1301069259644
,0,0.28,0.62,-0.26,0.69,-0.2,-0.97,0.43,-6.43,0.71,-7.65,0,0,0,-9.75,0.58,0.78,14.146317243576
,0,0.28,0.62,-0.26,0.69,-0.13,-0.19,0.31,-6,0.73,-8.17,0,0,0,-9.75,0.61,0.79,14.1656556129456
,0,0.28,0.62,-0.26,0.69,-0.13,0.6,0.12,-8.49,1.07,-6.01,0,0,0,-9.75,0.64,0.72,14.1804916858673
,0,0.28,0.62,-0.26,0.68,0,0.8,0.07,-15.14,-0.16,3.83,0,0,0,-9.76,0.65,0.59,14.1961510181427
,0,0.28,0.63,-0.26,0.68,-0.17,0.51,-0.11,-10.71,-1.98,3.21,0,0,0,-9.77,0.63,0.54,14.2155420780182
,0,0.28,0.63,-0.25,0.68,-0.47,0.86,-0.14,-11.85,-3.75,0.17,0,0,0,-9.77,0.61,0.4,14.2301781177521
,0,0.28,0.64,-0.25,0.67,-0.27,1.02,-0.13,-10.3,-1.08,-1.06,0,0,0,-9.78,0.59,0.3,14.2459325790405
,0,0.29,0.65,-0.25,0.66,0.03,1.3,-0.06,-11.1,1.55,-0.27,0,0,0,-9.78,0.58,0.07,14.2655205726624
,0,0.29,0.65,-0.24,0.66,-0.54,1.23,0.01,-9.3,3.5,-2.62,0,0,0,-9.78,0.58,-0.16,14.2802636623383
,0,0.28,0.66,-0.23,0.65,-0.97,1.18,-0.02,-8.99,3.76,-3.72,0,0,0,-9.78,0.58,-0.26,14.2957370281219
,0,0.28,0.67,-0.22,0.65,-1.38,1.04,-0.03,-10.59,0.71,-1.7,0,0,0,-9.77,0.58,-0.45,14.3154852390289
,0,0.27,0.68,-0.22,0.65,-0.93,0.93,0.02,-9.29,-0.78,-1.91,0,0,0,-9.76,0.6,-0.62,14.3300306797028
,0,0.27,0.68,-0.21,0.64,-0.5,0.87,0.01,-9.48,-1.31,-1.12,0,0,0,-9.76,0.6,-0.7,14.3459422588348
,0,0.28,0.69,-0.21,0.64,0.38,0.86,0.06,-9.53,-0.51,-1.18,0,0,0,-9.74,0.6,-0.86,14.3655848503113
,0,0.28,0.69,-0.21,0.63,0.67,0.9,0.09,-9.96,1.56,-1.25,0,0,0,-9.73,0.61,-1.04,14.3801052570343
,0,0.29,0.69,-0.21,0.63,0.51,0.91,0.09,-9.8,1.91,-1.62,0,0,0,-9.72,0.61,-1.13,14.3954286575317
,0,0.29,0.7,-0.21,0.62,-0.14,0.92,0.08,-9.96,2.36,-1.35,0,0,0,-9.69,0.63,-1.3,14.4155287742615
,0,0.29,0.7,-0.2,0.62,-0.73,0.94,0.02,-9.63,1.78,-1.86,0,0,0,-9.67,0.65,-1.47,14.4301862716675
,0,0.28,0.71,-0.2,0.61,-0.84,0.95,0,-9.46,1.85,-2.57,0,0,0,-9.65,0.66,-1.55,14.4455766677856
,0,0.28,0.72,-0.19,0.61,-0.77,0.95,-0.06,-9.72,1.51,-3.08,0,0,0,-9.62,0.68,-1.72,14.4664316177368
,0,0.28,0.72,-0.19,0.61,-0.6,0.86,-0.08,-9.98,1.01,-3.24,0,0,0,-9.59,0.69,-1.88,14.4807825088501
,0,0.28,0.73,-0.18,0.6,-0.58,0.81,-0.08,-10.23,0.46,-3.06,0,0,0,-9.58,0.69,-1.95,14.4959392547607
,0,0.27,0.73,-0.17,0.6,-0.52,0.7,-0.08,-10,0.07,-2.94,0,0,0,-9.55,0.69,-2.08,14.5158069133759
,0,0.27,0.73,-0.17,0.6,-0.46,0.59,-0.03,-9.78,-0.04,-2.96,0,0,0,-9.53,0.71,-2.18,14.5303235054016
,0,0.27,0.74,-0.17,0.6,-0.38,0.53,0.01,-9.71,-0.08,-2.7,0,0,0,-9.52,0.71,-2.23,14.5460863113403
,0,0.27,0.74,-0.17,0.59,-0.14,0.41,0.08,-9.51,0.23,-2.23,0,0,0,-9.5,0.74,-2.31,14.5664834976196
,0,0.27,0.74,-0.17,0.59,0.11,0.34,0.11,-9.59,0.76,-2.12,0,0,0,-9.48,0.75,-2.37,14.5810000896454
,0,0.27,0.74,-0.17,0.59,0.14,0.33,0.12,-9.1,1.56,-2.54,0,0,0,-9.46,0.77,-2.44,14.5961434841156
,0,0.28,0.74,-0.16,0.59,-0.01,0.31,0.1,-9.37,1.76,-2.29,0,0,0,-9.45,0.79,-2.49,14.6161894798279
,0,0.28,0.74,-0.16,0.59,-0.23,0.29,0.07,-9.2,1.07,-2.93,0,0,0,-9.44,0.8,-2.52,14.6309566497803
,0,0.27,0.75,-0.16,0.59,-0.26,0.3,0.06,-9.19,0.84,-2.84,0,0,0,-9.42,0.82,-2.57,14.6464023590088
,0,0.28,0.75,-0.16,0.58,-0.16,0.29,0.06,-9.3,1.06,-2.82,0,0,0,-9.41,0.83,-2.59,14.6657409667969
,0,0.28,0.75,-0.16,0.58,-0.04,0.3,0.07,-9.53,1.06,-2.88,0,0,0,-9.4,0.85,-2.65,14.6807436943054
,0,0.28,0.75,-0.16,0.58,-0,0.3,0.06,-9.64,0.44,-2.95,0,0,0,-9.39,0.86,-2.67,14.6955316066742
,0,0.28,0.75,-0.16,0.58,0.14,0.3,0.07,-9.73,0.23,-2.43,0,0,0,-9.37,0.86,-2.73,14.7163007259369
,0,0.28,0.75,-0.16,0.58,0.28,0.32,0.1,-9.51,1.13,-2.39,0,0,0,-9.35,0.87,-2.79,14.7306685447693
,0,0.28,0.75,-0.16,0.57,0.28,0.33,0.11,-9.41,1.21,-2.34,0,0,0,-9.34,0.87,-2.82,14.7456130981445
,0,0.29,0.75,-0.16,0.57,0.22,0.38,0.1,-9.53,0.98,-2.5,0,0,0,-9.32,0.87,-2.89,14.7662296295166
,0,0.29,0.75,-0.16,0.57,0.28,0.43,0.08,-9.39,0.49,-2.55,0,0,0,-9.3,0.87,-2.97,14.7804174423218
,0,0.29,0.76,-0.16,0.56,0.33,0.45,0.07,-9.45,0.71,-2.6,0,0,0,-9.28,0.87,-3.02,14.7960209846497
,0,0.29,0.76,-0.16,0.56,0.43,0.52,0.06,-9.41,1.19,-2.36,0,0,0,-9.25,0.86,-3.11,14.8155810832977
,0,0.3,0.76,-0.16,0.56,0.39,0.62,0.04,-9.16,1.97,-2.88,0,0,0,-9.21,0.84,-3.23,14.830602645874
,0,0.3,0.76,-0.16,0.55,0.32,0.66,0.01,-9.13,1.72,-3.24,0,0,0,-9.19,0.83,-3.29,14.8455722332001
,0,0.3,0.77,-0.16,0.54,0.26,0.71,-0.03,-9.45,1,-3.53,0,0,0,-9.15,0.81,-3.42,14.8659470081329
,0,0.3,0.77,-0.16,0.54,0.37,0.72,-0.04,-9.85,0.44,-3.57,0,0,0,-9.1,0.78,-3.55,14.8808665275574
,0,0.3,0.77,-0.16,0.53,0.45,0.73,-0.02,-10.04,0.57,-3.44,0,0,0,-9.07,0.76,-3.62,14.8958504199982
,0,0.31,0.77,-0.16,0.53,0.6,0.75,-0.02,-10.01,0.49,-3.37,0,0,0,-9.02,0.72,-3.76,14.9164156913757
,0,0.31,0.78,-0.17,0.52,0.61,0.83,-0.07,-10.18,1.57,-2.77,0,0,0,-8.96,0.66,-3.91,14.9306349754333
,0,0.31,0.78,-0.17,0.51,0.61,0.87,-0.08,-10.09,1.67,-2.43,0,0,0,-8.93,0.63,-3.99,14.9466037750244
,0,0.32,0.78,-0.17,0.5,0.62,0.99,-0.14,-10.19,2.1,-2.24,0,0,0,-8.86,0.56,-4.16,14.966340303421
,0,0.32,0.79,-0.17,0.5,0.56,1.16,-0.22,-10.83,1.33,-2.04,0,0,0,-8.77,0.48,-4.35,14.9802670478821
,0,0.32,0.79,-0.17,0.49,0.59,1.26,-0.25,-10.87,0.86,-1.94,0,0,0,-8.71,0.44,-4.46,14.9956729412079
,0,0.33,0.8,-0.18,0.47,0.76,1.47,-0.24,-11.51,-0.42,-1.42,0,0,0,-8.52,0.27,-4.84,15.0160171985626
,0,0.33,0.8,-0.18,0.46,1.07,1.72,-0.21,-11.76,-0.71,-1.2,0,0,0,-8.44,0.2,-4.98,15.0305087566376
,0,0.34,0.81,-0.18,0.44,1.2,1.87,-0.19,-12.13,-0.8,-1.53,0,0,0,-8.24,0.05,-5.3,15.0465915203094
,0,0.35,0.82,-0.19,0.42,1.4,2.13,-0.2,-12.64,-1.18,-1.6,0,0,0,-8.01,-0.13,-5.64,15.0659809112549
,0,0.35,0.82,-0.19,0.41,1.6,2.3,-0.25,-12.08,-0.27,-2.88,0,0,0,-7.88,-0.24,-5.82,15.0809519290924
,0,0.36,0.83,-0.2,0.38,1.63,2.37,-0.24,-11.82,0.1,-3.59,0,0,0,-7.6,-0.47,-6.17,15.0964658260345
,0,0.37,0.84,-0.2,0.36,1.44,2.43,-0.33,-11.54,0.95,-5.1,0,0,0,-7.3,-0.69,-6.5,15.1163845062256
,0,0.37,0.84,-0.2,0.35,1.2,2.38,-0.29,-10.86,1.92,-7.12,0,0,0,-7.15,-0.78,-6.66,15.1308264732361
,0,0.37,0.85,-0.2,0.32,0.98,2.34,-0.31,-11.66,2.04,-6.61,0,0,0,-6.83,-0.95,-6.96,15.1466960906982
,0,0.38,0.85,-0.2,0.3,0.64,2.31,-0.34,-9.74,0.63,-7.62,0,0,0,-6.51,-1.06,-7.24,15.1666586399078
,0,0.38,0.86,-0.19,0.29,0.07,2.06,-0.24,-9.04,0.09,-6.52,0,0,0,-6.37,-1.08,-7.37,15.1813654899597
,0,0.38,0.86,-0.19,0.28,-0.23,1.76,-0.17,-9.12,0.02,-4.22,0,0,0,-6.14,-1.05,-7.57,15.1965169906616
,0,0.38,0.86,-0.18,0.28,-0.33,1.03,0.14,-7.78,0.57,-2.72,0,0,0,-6.02,-0.99,-7.67,15.2163136005402
,0,0.38,0.86,-0.18,0.27,-0.08,0.29,0.28,-6.73,-0.42,-1.78,0,0,0,-6,-0.96,-7.69,15.2314085960388
,0,0.39,0.86,-0.18,0.28,0.02,-0.08,0.25,-6.3,-1.03,-2.04,0,0,0,-6.04,-0.95,-7.66,15.2462632656097
,0,0.39,0.86,-0.19,0.28,0.4,-0.69,0.17,-5.74,-0.82,-3.11,0,0,0,-6.16,-1.01,-7.55,15.2665073871613
,0,0.39,0.85,-0.19,0.29,0.69,-1.25,0.09,-5.12,-0.74,-3.19,0,0,0,-6.25,-1.05,-7.47,15.2810695171356
,0,0.39,0.85,-0.2,0.3,0.7,-1.5,0.08,-4.83,-0.21,-3.55,0,0,0,-6.49,-1.14,-7.26,15.2967209815979
,0,0.39,0.84,-0.22,0.31,0.63,-1.99,0.14,-5.16,0.4,-3.63,0,0,0,-6.78,-1.19,-6.97,15.316869020462
,0,0.39,0.84,-0.22,0.32,0.3,-2.42,0.29,-5.75,0.94,-4.15,0,0,0,-6.95,-1.2,-6.81,15.3314650058746
,0,0.38,0.83,-0.23,0.34,0.05,-2.61,0.36,-5.97,0.74,-4.33,0,0,0,-7.3,-1.13,-6.44,15.3471553325653
,0,0.38,0.81,-0.24,0.37,-0.35,-2.96,0.51,-6.82,0,-5.08,0,0,0,-7.68,-1,-6.01,15.3665730953217
,0,0.38,0.81,-0.24,0.39,-0.52,-3.24,0.6,-7.27,-0.49,-4.89,0,0,0,-7.87,-0.93,-5.77,15.3812725543976
,0,0.37,0.79,-0.24,0.42,-0.55,-3.34,0.61,-7.79,-0.61,-5.21,0,0,0,-8.06,-0.85,-5.51,15.3968117237091
,0,0.37,0.78,-0.25,0.45,-0.55,-3.52,0.58,-8.2,-0.75,-5.49,0,0,0,-8.59,-0.63,-4.67,15.4171614646912
,0,0.36,0.77,-0.25,0.46,-0.45,-3.67,0.51,-9.01,-0.27,-5.61,0,0,0,-8.75,-0.57,-4.37,15.4318068027496
,0,0.35,0.75,-0.26,0.49,-0.4,-3.75,0.49,-9.27,-0.07,-5.81,0,0,0,-9.06,-0.45,-3.72,15.4464859962463
,0,0.35,0.73,-0.27,0.52,-0.36,-3.87,0.49,-9.82,0.49,-6.15,0,0,0,-9.31,-0.34,-3.03,15.4669382572174
,0,0.34,0.72,-0.27,0.54,-0.52,-3.89,0.52,-9.88,0.73,-6.4,0,0,0,-9.42,-0.28,-2.68,15.4817395210266
,0,0.33,0.7,-0.28,0.57,-0.68,-3.86,0.53,-10.16,0.73,-6.39,0,0,0,-9.6,-0.14,-1.97,15.4966776371002
,0,0.32,0.68,-0.28,0.6,-0.95,-3.75,0.55,-10.23,0.5,-6.45,0,0,0,-9.72,-0.01,-1.28,15.5168297290802
,0,0.31,0.67,-0.28,0.61,-1.13,-3.49,0.56,-10.19,0.06,-6.61,0,0,0,-9.75,0.05,-0.95,15.5320048332214
,0,0.3,0.65,-0.28,0.64,-1.16,-3.27,0.55,-10.19,-0.19,-6.6,0,0,0,-9.79,0.17,-0.36,15.5465071201324
,0,0.29,0.64,-0.28,0.66,-1.03,-2.75,0.53,-9.85,-0.37,-6.45,0,0,0,-9.8,0.27,0.14,15.5672171115875
,0,0.29,0.63,-0.28,0.66,-0.81,-2.24,0.47,-8.2,-0.08,-6.96,0,0,0,-9.79,0.31,0.35,15.5818185806274
,0,0.28,0.62,-0.27,0.68,-0.68,-1.9,0.44,-7.79,0.05,-7,0,0,0,-9.77,0.38,0.68,15.5971231460571
,0,0.28,0.62,-0.27,0.69,-0.39,-1.09,0.39,-7.27,0.49,-6.9,0,0,0,-9.75,0.45,0.85,15.6166989803314
,0,0.28,0.61,-0.27,0.69,-0.23,-0.28,0.27,-6.68,0.49,-6.97,0,0,0,-9.75,0.47,0.88,15.6315984725952
,0,0.28,0.62,-0.27,0.69,-0.16,0.12,0.21,-6.49,0.24,-6.93,0,0,0,-9.75,0.5,0.82,15.6469852924347
,0,0.28,0.62,-0.27,0.68,-0.03,0.86,0.06,-7.41,-0.37,-6.28,0,0,0,-9.77,0.51,0.64,15.6668078899384
,0,0.28,0.62,-0.27,0.68,0.49,0.72,0.03,-13.86,-2.47,7.21,0,0,0,-9.77,0.52,0.57,15.6818494796753
,0,0.29,0.63,-0.27,0.67,0.35,0.56,0.02,-10.69,-2.08,5.15,0,0,0,-9.78,0.51,0.45,15.6973819732666
,0,0.29,0.63,-0.26,0.67,-0.16,0.83,-0.14,-11.36,-2.02,-0.35,0,0,0,-9.79,0.49,0.28,15.7170283794403
,0,0.29,0.64,-0.26,0.66,-0.39,1.21,-0.13,-10.92,-0.85,-1.91,0,0,0,-9.79,0.47,0.17,15.7319798469543
,0,0.29,0.65,-0.25,0.66,-0.44,1.3,-0.13,-11.33,0.98,-0.96,0,0,0,-9.79,0.45,-0.06,15.7471787929535
,0,0.28,0.66,-0.25,0.65,-0.74,1.23,-0.04,-9.85,1.71,-2.14,0,0,0,-9.79,0.45,-0.18,15.7666285037994
,0,0.28,0.66,-0.24,0.65,-1.32,1.11,0.02,-9.71,1.66,-4.29,0,0,0,-9.78,0.46,-0.38,15.7812366485596
,0,0.27,0.67,-0.23,0.65,-1.46,1.03,0.02,-10.53,0.82,-3.19,0,0,0,-9.78,0.46,-0.47,15.796707868576
,0,0.27,0.68,-0.22,0.64,-1.06,0.88,0.07,-10.07,-0.95,-2.14,0,0,0,-9.77,0.49,-0.63,15.8170537948608
,0,0.27,0.68,-0.22,0.64,-0.21,0.76,0.1,-9.82,-2.04,-1.87,0,0,0,-9.76,0.51,-0.78,15.8308029174805
,0,0.28,0.69,-0.22,0.64,0.3,0.75,0.12,-10.16,-1.88,-1.44,0,0,0,-9.75,0.52,-0.85,15.8464186191559
,0,0.29,0.69,-0.22,0.63,1.02,0.73,0.15,-9.73,-0.05,-1.35,0,0,0,-9.74,0.53,-1,15.8664355278015
,0,0.29,0.69,-0.22,0.63,1,0.69,0.17,-9.6,2.55,-1.56,0,0,0,-9.72,0.54,-1.14,15.8814358711243
,0,0.3,0.69,-0.22,0.62,0.69,0.69,0.19,-9.84,3.1,-1.75,0,0,0,-9.71,0.55,-1.21,15.8964471817017
,0,0.3,0.69,-0.22,0.62,-0.14,0.7,0.13,-9.96,2.47,-1.79,0,0,0,-9.69,0.58,-1.34,15.9147698879242
,0,0.3,0.7,-0.22,0.62,-0.56,0.69,0.07,-9.05,1.27,-1.96,0,0,0,-9.67,0.61,-1.47,15.9303121566772
,0,0.3,0.7,-0.21,0.61,-0.56,0.73,0.04,-9.46,0.86,-1.94,0,0,0,-9.66,0.62,-1.53,15.9455921649933
,0,0.29,0.71,-0.21,0.61,-0.31,0.75,0.01,-9.58,1.44,-2.01,0,0,0,-9.64,0.64,-1.67,15.9608843326569
,0,0.29,0.71,-0.2,0.6,-0.25,0.75,-0,-9.63,1.65,-2.21,0,0,0,-9.61,0.64,-1.8,15.9787337779999
,0,0.29,0.71,-0.2,0.6,-0.28,0.75,-0.02,-9.97,1.09,-2,0,0,0,-9.6,0.65,-1.87,15.9930334091187
,0,0.29,0.72,-0.2,0.6,-0.28,0.68,-0.04,-9.92,0.4,-1.98,0,0,0,-9.57,0.65,-2,16.0092308521271
,0,0.29,0.72,-0.2,0.59,-0.23,0.65,-0.03,-9.78,0.26,-2.51,0,0,0,-9.55,0.66,-2.11,16.0284202098846
,0,0.29,0.72,-0.19,0.59,-0.05,0.61,0.01,-9.78,0.52,-2.51,0,0,0,-9.53,0.66,-2.17,16.0428903102875
,0,0.3,0.73,-0.19,0.59,0.07,0.53,0.03,-9.45,0.68,-2.67,0,0,0,-9.51,0.66,-2.27,16.0594043731689
,0,0.3,0.73,-0.19,0.59,0.1,0.48,0.03,-9.44,0.84,-2.62,0,0,0,-9.49,0.66,-2.36,16.0781359672546
,0,0.3,0.73,-0.19,0.58,0.11,0.44,0.04,-9.34,1,-2.6,0,0,0,-9.48,0.66,-2.4,16.0927622318268
,0,0.3,0.73,-0.19,0.58,0,0.41,0.02,-9.47,1.12,-2.63,0,0,0,-9.46,0.67,-2.48,16.1093852519989
,0,0.3,0.73,-0.19,0.58,-0.05,0.4,0.02,-9.28,1,-2.72,0,0,0,-9.44,0.67,-2.55,16.128484249115
,0,0.3,0.74,-0.19,0.58,-0.1,0.41,0.01,-9.13,0.81,-2.75,0,0,0,-9.43,0.67,-2.59,16.1433551311493
,0,0.3,0.74,-0.19,0.57,0,0.4,0.02,-9.39,0.91,-2.81,0,0,0,-9.41,0.68,-2.66,16.1599113941193
,0,0.3,0.74,-0.19,0.57,0.05,0.41,0.02,-9.62,0.98,-2.69,0,0,0,-9.39,0.68,-2.74,16.1781146526337
,0,0.3,0.74,-0.19,0.57,0.12,0.4,0.02,-9.4,1,-2.55,0,0,0,-9.37,0.69,-2.77,16.1928985118866
,0,0.31,0.74,-0.18,0.57,0.09,0.41,0.02,-9.39,1.01,-2.79,0,0,0,-9.35,0.69,-2.85,16.2095243930817
,0,0.31,0.75,-0.18,0.56,0.06,0.43,0.02,-9.32,0.98,-2.77,0,0,0,-9.33,0.7,-2.92,16.2278933525085
,0,0.31,0.75,-0.18,0.56,0.04,0.46,-0,-9.48,0.98,-2.81,0,0,0,-9.32,0.7,-2.96,16.2427394390106
,0,0.31,0.75,-0.18,0.56,0.03,0.49,-0.01,-9.5,0.96,-2.94,0,0,0,-9.29,0.7,-3.05,16.2598264217377
,0,0.31,0.75,-0.18,0.55,0.03,0.5,-0.02,-9.46,0.95,-3.02,0,0,0,-9.26,0.69,-3.14,16.2786998748779
,0,0.31,0.75,-0.18,0.55,0.05,0.51,-0.03,-9.53,0.94,-2.97,0,0,0,-9.24,0.69,-3.18,16.293313741684
,0,0.31,0.76,-0.18,0.55,0.07,0.55,-0.04,-9.48,0.92,-3.12,0,0,0,-9.21,0.68,-3.27,16.3093664646149
,0,0.31,0.76,-0.18,0.54,0.08,0.56,-0.05,-9.44,0.97,-2.99,0,0,0,-9.18,0.67,-3.37,16.3278739452362
,0,0.31,0.76,-0.18,0.54,0.08,0.6,-0.07,-9.5,0.86,-3.18,0,0,0,-9.16,0.67,-3.42,16.3427491188049
,0,0.31,0.76,-0.18,0.54,0.11,0.65,-0.1,-9.69,0.61,-3.2,0,0,0,-9.12,0.65,-3.52,16.3596882820129
,0,0.31,0.77,-0.18,0.53,0.14,0.68,-0.09,-9.42,0.9,-3.6,0,0,0,-9.08,0.62,-3.64,16.3790247440338
,0,0.32,0.77,-0.18,0.53,0.25,0.78,-0.11,-9.85,0.9,-2.89,0,0,0,-9.05,0.6,-3.71,16.3935849666595
,0,0.32,0.77,-0.18,0.52,0.29,0.9,-0.14,-10.5,1.12,-2.24,0,0,0,-8.99,0.56,-3.87,16.4104714393616
,0,0.32,0.78,-0.18,0.51,0.32,0.96,-0.16,-10.12,1.23,-2.1,0,0,0,-8.91,0.5,-4.05,16.4297020435333
,0,0.32,0.78,-0.18,0.51,0.37,1.13,-0.23,-10.26,1.62,-2.09,0,0,0,-8.87,0.46,-4.15,16.4443123340607
,0,0.32,0.79,-0.18,0.5,0.32,1.31,-0.28,-10.69,1.27,-1.91,0,0,0,-8.77,0.39,-4.36,16.461400270462
,0,0.32,0.79,-0.18,0.48,0.32,1.4,-0.29,-11.11,-0.15,-2.23,0,0,0,-8.64,0.31,-4.61,16.4793584346771
,0,0.33,0.8,-0.18,0.48,0.55,1.63,-0.28,-11.55,-0.32,-1.97,0,0,0,-8.57,0.26,-4.75,16.4941275119781
,0,0.33,0.81,-0.18,0.46,0.77,1.83,-0.27,-12.21,-0.23,-1.9,0,0,0,-8.4,0.15,-5.05,16.5113258361816
,0,0.34,0.81,-0.18,0.44,0.84,1.93,-0.26,-13.04,-0.74,-1.72,0,0,0,-8.2,0.02,-5.36,16.5297381877899
,0,0.34,0.82,-0.18,0.43,1.18,2,-0.22,-13.36,-1.05,-1.56,0,0,0,-8.1,-0.05,-5.52,16.5438454151154
,0,0.35,0.82,-0.19,0.41,1.64,2,-0.15,-11.9,-0.51,-2.94,0,0,0,-7.88,-0.25,-5.82,16.5616788864136
,0,0.36,0.83,-0.19,0.39,1.64,2.33,-0.26,-11.01,0.71,-5.15,0,0,0,-7.62,-0.48,-6.15,16.5798757076263
,0,0.36,0.83,-0.2,0.37,1.41,2.49,-0.32,-10.59,1.02,-6.33,0,0,0,-7.46,-0.58,-6.32,16.5941336154938
,0,0.36,0.84,-0.2,0.35,0.82,2.64,-0.34,-11.91,1.54,-6.74,0,0,0,-7.13,-0.75,-6.68,16.6119601726532
,0,0.37,0.85,-0.19,0.32,0.42,2.45,-0.26,-9.68,0.93,-7.32,0,0,0,-6.79,-0.86,-7.01,16.6297163963318
,0,0.37,0.85,-0.19,0.31,0.25,2.31,-0.21,-9.36,1.33,-7.37,0,0,0,-6.63,-0.89,-7.16,16.6443474292755
,0,0.37,0.86,-0.18,0.3,-0.1,1.74,-0.07,-9.64,-0.02,-2.84,0,0,0,-6.36,-0.9,-7.4,16.6623349189758
,0,0.38,0.86,-0.18,0.29,0.06,1.04,0.15,-8.02,0.58,-1.85,0,0,0,-6.18,-0.88,-7.55,16.6803696155548
,0,0.38,0.86,-0.18,0.28,0.23,0.72,0.14,-7.28,0.05,-2.36,0,0,0,-6.13,-0.89,-7.59,16.6943907737732
,0,0.38,0.86,-0.18,0.28,0.27,0.09,0.09,-7.13,0.04,-2.92,0,0,0,-6.1,-0.92,-7.62,16.7123408317566
,0,0.38,0.86,-0.18,0.28,0.29,-0.54,0.01,-6.13,-0.17,-2.91,0,0,0,-6.15,-0.96,-7.57,16.7301259040833
,0,0.38,0.86,-0.19,0.29,0.31,-0.81,-0.01,-5.75,-0.14,-2.74,0,0,0,-6.21,-0.98,-7.51,16.7447030544281
,0,0.38,0.85,-0.19,0.3,0.27,-1.33,0.02,-5.42,0.43,-3.51,0,0,0,-6.39,-1.02,-7.36,16.7627425193787
,0,0.38,0.85,-0.2,0.31,0.13,-1.84,0.09,-5.5,0.56,-3.79,0,0,0,-6.63,-1.03,-7.14,16.7799272537231
,0,0.38,0.85,-0.2,0.32,-0.01,-2.05,0.14,-5.66,0.6,-3.87,0,0,0,-6.77,-1.02,-7.01,16.794732093811
,0,0.37,0.84,-0.21,0.34,-0.32,-2.45,0.24,-6.33,0.09,-4.22,0,0,0,-7.09,-0.96,-6.7,16.8124713897705
,0,0.37,0.83,-0.21,0.36,-0.52,-2.8,0.32,-6.92,-0.46,-4.83,0,0,0,-7.43,-0.86,-6.33,16.8304617404938
,0,0.37,0.82,-0.22,0.38,-0.56,-2.93,0.34,-7.16,-0.59,-5.09,0,0,0,-7.61,-0.8,-6.12,16.8453283309937
,0,0.36,0.81,-0.22,0.4,-0.52,-3.17,0.36,-7.63,-0.69,-5.17,0,0,0,-7.97,-0.68,-5.66,16.8636374473572
,0,0.35,0.8,-0.23,0.43,-0.46,-3.33,0.35,-8.02,-0.5,-5.56,0,0,0,-8.32,-0.58,-5.14,16.880633354187
,0,0.35,0.79,-0.23,0.44,-0.43,-3.41,0.34,-8.16,-0.41,-5.6,0,0,0,-8.49,-0.53,-4.87,16.8957471847534
,0,0.34,0.78,-0.24,0.47,-0.41,-3.53,0.33,-8.93,-0.01,-5.78,0,0,0,-8.8,-0.44,-4.28,16.914288520813
,0,0.34,0.76,-0.25,0.5,-0.42,-3.64,0.38,-9.34,0.29,-5.9,0,0,0,-9.08,-0.34,-3.66,16.9315736293793
,0,0.33,0.75,-0.25,0.52,-0.42,-3.68,0.41,-9.54,0.21,-6.09,0,0,0,-9.21,-0.29,-3.34,16.9462523460388
,0,0.32,0.73,-0.26,0.55,-0.5,-3.7,0.47,-9.61,0.27,-6.31,0,0,0,-9.43,-0.18,-2.67,16.9645748138428
,0,0.31,0.71,-0.26,0.57,-0.59,-3.62,0.52,-9.95,0.43,-6.17,0,0,0,-9.59,-0.06,-2,16.9814560413361
,0,0.31,0.7,-0.26,0.59,-0.65,-3.53,0.54,-9.93,0.53,-6.22,0,0,0,-9.66,0,-1.67,16.9962961673737
,0,0.3,0.68,-0.26,0.61,-0.8,-3.27,0.56,-9.79,0.27,-6.51,0,0,0,-9.75,0.12,-1.04,17.0149948596954
,0,0.29,0.66,-0.26,0.64,-0.83,-2.96,0.53,-9.98,0.09,-6.81,0,0,0,-9.79,0.23,-0.46,17.0318174362183
,0,0.28,0.65,-0.26,0.66,-0.77,-2.8,0.52,-9.73,-0.02,-7.3,0,0,0,-9.8,0.28,-0.19,17.0467069149017
,0,0.28,0.64,-0.26,0.67,-0.59,-2.37,0.46,-8.84,-0.16,-7.78,0,0,0,-9.79,0.37,0.27,17.065860748291
,0,0.28,0.63,-0.26,0.68,-0.3,-1.77,0.4,-8.07,0.16,-6.99,0,0,0,-9.77,0.45,0.64,17.0820217132568
,0,0.27,0.62,-0.26,0.69,-0.17,-1.42,0.4,-7.34,0.33,-7.18,0,0,0,-9.76,0.49,0.78,17.0971438884735
,0,0.27,0.61,-0.26,0.69,-0.03,-0.63,0.36,-6.48,0.58,-7.41,0,0,0,-9.74,0.56,0.94,17.1161091327667
,0,0.28,0.61,-0.26,0.69,0.07,0.17,0.28,-6.67,0.7,-6.96,0,0,0,-9.74,0.61,0.94,17.1321096420288
,0,0.28,0.62,-0.26,0.69,0.1,0.51,0.2,-6.98,0.69,-6.65,0,0,0,-9.74,0.63,0.89,17.1473753452301
,0,0.28,0.62,-0.26,0.69,0.4,0.68,0.08,-15.65,-1.85,6.83,0,0,0,-9.75,0.66,0.75,17.1659498214722
,0,0.28,0.62,-0.26,0.68,-0.06,0.68,-0.1,-11.69,-1.09,3.36,0,0,0,-9.76,0.65,0.64,17.1823632717133
,0,0.28,0.63,-0.25,0.68,-0.25,0.87,-0.11,-12.48,-1.53,1.65,0,0,0,-9.76,0.64,0.56,17.1976137161255
,0,0.28,0.63,-0.25,0.67,-0.31,1.22,-0.12,-10.18,-1.12,-1.22,0,0,0,-9.78,0.61,0.35,17.2161724567413
,0,0.28,0.64,-0.25,0.67,-0.34,1.39,-0.09,-10.88,1.63,-0.48,0,0,0,-9.78,0.59,0.09,17.2331910133362
,0,0.28,0.65,-0.24,0.66,-0.61,1.42,-0.06,-10.01,2.38,-1.27,0,0,0,-9.78,0.59,-0.03,17.248336315155
,0,0.28,0.66,-0.23,0.66,-1.62,1.37,-0.09,-10.16,4.1,-3.18,0,0,0,-9.78,0.58,-0.28,17.2663838863373
,0,0.27,0.67,-0.22,0.65,-2.1,1.14,-0.09,-8.87,1.25,-4,0,0,0,-9.77,0.57,-0.48,17.2827188968658
,0,0.26,0.68,-0.2,0.65,-1.92,1.03,-0.04,-10.16,-1.38,-2.64,0,0,0,-9.77,0.58,-0.56,17.2982845306396
,0,0.26,0.69,-0.2,0.65,-0.74,0.86,0.06,-10.32,-3.57,-1.22,0,0,0,-9.76,0.6,-0.72,17.3164823055267
,0,0.26,0.69,-0.2,0.64,0.57,0.83,0.17,-10.16,-1.54,-1.78,0,0,0,-9.74,0.62,-0.88,17.3333594799042
,0,0.27,0.69,-0.2,0.64,0.83,0.83,0.21,-10.18,-0.92,-1.87,0,0,0,-9.72,0.65,-1.04,17.3483855724335
,0,0.27,0.69,-0.2,0.63,0.66,0.78,0.3,-9.72,2.59,-1.98,0,0,0,-9.71,0.67,-1.12,17.3671708106995
,0,0.28,0.7,-0.2,0.63,-0.25,0.75,0.26,-9.57,3.47,-2.67,0,0,0,-9.69,0.72,-1.26,17.3828699588776
,0,0.27,0.7,-0.19,0.63,-0.62,0.72,0.21,-10.15,1.68,-1.33,0,0,0,-9.67,0.78,-1.39,17.3977444171906
,0,0.27,0.71,-0.18,0.63,-0.7,0.69,0.15,-9.54,1.03,-2.12,0,0,0,-9.66,0.8,-1.45,17.416711807251
,0,0.27,0.71,-0.18,0.62,-0.2,0.68,0.13,-10.13,0.7,-1.98,0,0,0,-9.64,0.84,-1.57,17.4327688217163
,0,0.28,0.71,-0.18,0.62,0.04,0.65,0.14,-10.08,1.36,-1.89,0,0,0,-9.63,0.85,-1.63,17.4479413032532
,0,0.28,0.72,-0.18,0.62,0.07,0.61,0.08,-9.81,1.9,-2.12,0,0,0,-9.6,0.86,-1.75,17.4662139415741
,0,0.28,0.72,-0.17,0.61,0.01,0.56,0.02,-9.77,1.38,-2.13,0,0,0,-9.58,0.87,-1.85,17.4832034111023
,0,0.28,0.72,-0.17,0.61,-0.01,0.53,0.01,-9.73,1.26,-1.96,0,0,0,-9.57,0.87,-1.9,17.4981849193573
,0,0.28,0.72,-0.17,0.61,-0.03,0.5,0.02,-9.54,0.4,-2.49,0,0,0,-9.55,0.87,-2,17.5168693065643
,0,0.28,0.73,-0.17,0.6,0.13,0.43,0.06,-9.62,0.75,-2.57,0,0,0,-9.54,0.88,-2.08,17.5330619812012
,0,0.28,0.73,-0.17,0.6,0.3,0.38,0.06,-9.35,0.93,-2.67,0,0,0,-9.52,0.88,-2.16,17.5482323169708
,0,0.29,0.73,-0.17,0.6,0.33,0.36,0.07,-9.2,1.52,-2.58,0,0,0,-9.51,0.87,-2.19,17.5675048828125
,0,0.29,0.73,-0.17,0.6,0.19,0.34,0.06,-9.44,1.47,-2.05,0,0,0,-9.5,0.88,-2.26,17.5838530063629
,0,0.29,0.73,-0.17,0.59,0.02,0.31,0.04,-9.28,1.32,-2.3,0,0,0,-9.48,0.88,-2.32,17.5986828804016
,0,0.29,0.73,-0.17,0.59,-0.04,0.31,0.04,-9.38,1.04,-2.62,0,0,0,-9.47,0.89,-2.35,17.6176328659058
,0,0.29,0.73,-0.17,0.59,-0.09,0.32,0.04,-9.63,1.32,-2.47,0,0,0,-9.46,0.9,-2.4,17.6341359615326
,0,0.29,0.74,-0.17,0.59,-0.05,0.28,0.04,-9.52,0.88,-2.64,0,0,0,-9.44,0.91,-2.45,17.6492660045624
,0,0.29,0.74,-0.17,0.59,0.05,0.28,0.04,-9.62,0.61,-2.49,0,0,0,-9.44,0.91,-2.48,17.6671245098114
,0,0.29,0.74,-0.17,0.59,0.26,0.27,0.05,-9.69,1.12,-2.19,0,0,0,-9.42,0.91,-2.53,17.6841681003571
,0,0.29,0.74,-0.17,0.58,0.31,0.3,0.06,-9.54,1.41,-2.21,0,0,0,-9.41,0.91,-2.59,17.6990239620209
,0,0.3,0.74,-0.17,0.58,0.21,0.32,0.05,-9.62,1.46,-2.02,0,0,0,-9.4,0.91,-2.62,17.7176578044891
,0,0.3,0.74,-0.17,0.58,0.14,0.36,0.03,-9.33,1.29,-2.21,0,0,0,-9.38,0.91,-2.69,17.7336792945862
,0,0.3,0.74,-0.17,0.57,0.15,0.4,0.03,-9.12,1.38,-2.24,0,0,0,-9.36,0.9,-2.77,17.7488436698914
,0,0.3,0.75,-0.17,0.57,0.15,0.47,0,-9.39,1.51,-2.21,0,0,0,-9.34,0.9,-2.81,17.7679617404938
,0,0.3,0.75,-0.17,0.57,0.07,0.53,-0.03,-9.53,1.49,-2.71,0,0,0,-9.32,0.89,-2.91,17.7847261428833
,0,0.3,0.75,-0.17,0.56,0.04,0.57,-0.06,-9.37,1.29,-2.91,0,0,0,-9.29,0.87,-3.01,17.7989616394043
,0,0.3,0.75,-0.17,0.56,0.04,0.61,-0.09,-9.3,1.21,-3.23,0,0,0,-9.27,0.86,-3.07,17.8178255558014
,0,0.3,0.76,-0.17,0.56,0.08,0.67,-0.1,-9.27,1.12,-3.16,0,0,0,-9.23,0.84,-3.18,17.8346598148346
,0,0.3,0.76,-0.17,0.55,0.11,0.69,-0.11,-9.36,0.99,-3.05,0,0,0,-9.19,0.81,-3.31,17.8496387004852
,0,0.3,0.76,-0.16,0.54,0.14,0.73,-0.14,-9.45,0.89,-3.14,0,0,0,-9.17,0.8,-3.38,17.8681416511536
,0,0.3,0.77,-0.16,0.54,0.15,0.8,-0.17,-10.26,1.75,-3,0,0,0,-9.11,0.76,-3.52,17.8846542835236
,0,0.31,0.77,-0.16,0.53,0.11,0.82,-0.17,-10.31,0.92,-2.66,0,0,0,-9.06,0.72,-3.67,17.8997683525085
,0,0.31,0.78,-0.16,0.53,0.12,0.88,-0.21,-10.3,0.91,-2.41,0,0,0,-9.03,0.7,-3.74,17.9183282852173
,0,0.31,0.78,-0.16,0.52,0.2,0.95,-0.25,-10.36,1.44,-2.55,0,0,0,-8.96,0.64,-3.91,17.9351601600647
,0,0.31,0.78,-0.16,0.51,0.17,1.02,-0.28,-10.76,1.15,-2.57,0,0,0,-8.89,0.58,-4.09,17.9501314163208
,0,0.31,0.79,-0.16,0.5,0.18,1.14,-0.34,-10.63,0.93,-2.74,0,0,0,-8.84,0.54,-4.19,17.9685437679291
,0,0.31,0.79,-0.16,0.5,0.29,1.3,-0.35,-11.29,-0.03,-2.1,0,0,0,-8.74,0.46,-4.41,17.9852476119995
,0,0.31,0.8,-0.16,0.49,0.43,1.37,-0.33,-11.15,-1.24,-2.09,0,0,0,-8.62,0.36,-4.65,17.9998388290405
,0,0.31,0.81,-0.17,0.47,0.89,1.59,-0.27,-11.31,-1.55,-1.91,0,0,0,-8.55,0.29,-4.79,18.0180602073669
,0,0.32,0.81,-0.17,0.46,1.4,1.88,-0.23,-11.96,-2.2,-1.2,0,0,0,-8.37,0.13,-5.09,18.0353066921234
,0,0.33,0.82,-0.18,0.44,1.66,1.99,-0.2,-12.7,-1.23,-1.07,0,0,0,-8.17,-0.07,-5.42,18.050306558609
,0,0.34,0.82,-0.19,0.41,2.11,2.11,-0.11,-11.78,-0.16,-3.12,0,0,0,-8.05,-0.19,-5.58,18.0684044361115
,0,0.35,0.83,-0.2,0.4,2.17,2.24,-0.1,-11.96,0.91,-3.69,0,0,0,-7.81,-0.45,-5.9,18.0847001075745
,0,0.36,0.83,-0.2,0.38,2,2.28,-0.15,-10.43,2.52,-6.15,0,0,0,-7.54,-0.7,-6.23,18.1002476215363
,0,0.36,0.84,-0.21,0.35,1.39,2.43,-0.31,-10.77,2.97,-6.89,0,0,0,-7.22,-0.89,-6.56,18.1186838150024
,0,0.36,0.84,-0.2,0.34,0.55,2.54,-0.31,-11,1.3,-7.17,0,0,0,-7.06,-0.94,-6.73,18.1356294155121
,0,0.37,0.85,-0.2,0.32,0.19,2.48,-0.26,-10.25,1.34,-7.11,0,0,0,-6.73,-0.98,-7.06,18.1506938934326
,0,0.37,0.86,-0.19,0.3,-0.23,2.24,-0.13,-10.17,0.1,-4.08,0,0,0,-6.43,-0.95,-7.33,18.1691682338715
,0,0.37,0.86,-0.18,0.3,-0.35,1.59,0.02,-9.35,-0.36,-2.45,0,0,0,-6.32,-0.93,-7.43,18.18576836586
,0,0.37,0.86,-0.18,0.29,-0.07,1.25,0.11,-7.09,-0.26,-2.21,0,0,0,-6.17,-0.92,-7.56,18.2007958889008
,0,0.38,0.86,-0.18,0.28,0.32,0.57,0.17,-6.96,-0.74,-2.45,0,0,0,-6.11,-0.96,-7.6,18.2190535068512
,0,0.38,0.86,-0.18,0.28,0.57,-0.06,0.09,-6.05,-0.13,-2.69,0,0,0,-6.11,-0.99,-7.59,18.2352979183197
,0,0.38,0.86,-0.19,0.28,0.68,-0.35,0.06,-5.52,0,-2.61,0,0,0,-6.19,-1.09,-7.52,18.2508630752563
,0,0.38,0.86,-0.2,0.29,0.66,-0.92,0.03,-5.32,0.17,-2.83,0,0,0,-6.34,-1.17,-7.38,18.2686972618103
,0,0.38,0.85,-0.2,0.3,0.47,-1.46,0.07,-5.44,0.59,-3.47,0,0,0,-6.45,-1.2,-7.28,18.2855353355408
,0,0.38,0.85,-0.21,0.31,0.34,-1.7,0.11,-5.72,0.97,-3.87,0,0,0,-6.7,-1.22,-7.04,18.3003964424133
,0,0.37,0.84,-0.22,0.33,-0.05,-2.13,0.26,-6.02,0.72,-3.91,0,0,0,-7.01,-1.16,-6.75,18.3186066150665
,0,0.37,0.83,-0.22,0.34,-0.47,-2.51,0.39,-6.4,-0.01,-4.08,0,0,0,-7.17,-1.1,-6.59,18.3356328010559
,0,0.37,0.83,-0.22,0.37,-0.59,-2.68,0.43,-7.09,-0.8,-4.7,0,0,0,-7.52,-0.96,-6.2,18.3507778644562
,0,0.36,0.81,-0.23,0.39,-0.63,-2.98,0.5,-7.29,-0.96,-4.91,0,0,0,-7.88,-0.82,-5.76,18.3688478469849
,0,0.36,0.81,-0.23,0.41,-0.47,-3.2,0.53,-7.8,-0.85,-5.47,0,0,0,-8.06,-0.75,-5.52,18.3860340118408
,0,0.36,0.79,-0.24,0.44,-0.38,-3.3,0.55,-8.35,-0.76,-5.87,0,0,0,-8.41,-0.63,-4.99,18.4006059169769
,0,0.35,0.78,-0.25,0.46,-0.17,-3.46,0.59,-8.9,-0.27,-5.8,0,0,0,-8.74,-0.52,-4.41,18.4189238548279
,0,0.35,0.77,-0.25,0.48,-0.09,-3.57,0.65,-9.39,0.34,-6,0,0,0,-8.89,-0.46,-4.11,18.4360959529877
,0,0.35,0.75,-0.26,0.51,-0.13,-3.63,0.69,-9.38,0.3,-6.43,0,0,0,-9.16,-0.32,-3.47,18.4508888721466
,0,0.34,0.73,-0.26,0.54,-0.32,-3.66,0.72,-9.57,0.26,-6.51,0,0,0,-9.39,-0.17,-2.82,18.4693868160248
,0,0.34,0.72,-0.26,0.55,-0.56,-3.57,0.69,-10.14,0.01,-6.39,0,0,0,-9.48,-0.09,-2.49,18.4863104820251
,0,0.33,0.7,-0.27,0.58,-0.77,-3.42,0.62,-9.83,0.21,-6.22,0,0,0,-9.62,0.04,-1.85,18.500935792923
,0,0.32,0.68,-0.27,0.6,-0.88,-3.32,0.56,-10.27,0.38,-6.35,0,0,0,-9.72,0.17,-1.24,18.5187056064606
,0,0.31,0.67,-0.27,0.62,-1.05,-3.11,0.48,-10.29,0.76,-6.87,0,0,0,-9.75,0.23,-0.94,18.5362184047699
,0,0.3,0.66,-0.27,0.64,-1.17,-2.83,0.41,-9.33,0.48,-7.64,0,0,0,-9.79,0.32,-0.38,18.5517098903656
,0,0.29,0.64,-0.26,0.66,-1.12,-2.63,0.4,-8.87,-0.06,-7.79,0,0,0,-9.79,0.4,0.09,18.5696928501129
,0,0.28,0.64,-0.26,0.67,-1.03,-2.06,0.35,-7.48,-0.27,-7.83,0,0,0,-9.79,0.43,0.29,18.5861523151398
,0,0.28,0.63,-0.26,0.68,-0.7,-1.36,0.38,-6.7,-0.54,-8.29,0,0,0,-9.77,0.49,0.59,18.6015152931213
,0,0.28,0.62,-0.26,0.69,-0.52,-0.94,0.38,-6.68,-0.32,-8.33,0,0,0,-9.76,0.56,0.73,18.6196272373199
,0,0.28,0.62,-0.26,0.69,-0.19,-0.07,0.37,-5.66,0,-10.71,0,0,0,-9.76,0.59,0.74,18.6365423202515
,0,0.28,0.63,-0.25,0.68,-0.38,0.87,-0.12,-15.89,-4.06,8.17,0,0,0,-9.76,0.6,0.61,18.65167760849
,0,0.28,0.63,-0.25,0.68,-0.07,0.73,-0.26,-12.17,-1.4,4.94,0,0,0,-9.77,0.56,0.46,18.669059753418
,0,0.28,0.64,-0.25,0.68,-0.31,1.08,-0.02,-11.26,-0.53,-0.14,0,0,0,-9.78,0.56,0.36,18.6867125034332
,0,0.28,0.65,-0.24,0.67,-0.28,1.21,-0.1,-9.88,-0.02,-1.07,0,0,0,-9.79,0.54,0.14,18.7017040252686
,0,0.28,0.65,-0.24,0.66,-0.18,1.31,-0.08,-9.53,0.38,-1.59,0,0,0,-9.79,0.53,-0.11,18.7194077968597
,0,0.28,0.66,-0.24,0.66,-0.51,1.53,-0.05,-11.1,3.48,-2.62,0,0,0,-9.78,0.52,-0.25,18.7371418476105
,0,0.27,0.67,-0.22,0.65,-1.2,1.39,-0.04,-9.17,2.76,-3.83,0,0,0,-9.77,0.52,-0.51,18.7522237300873
,0,0.27,0.68,-0.21,0.65,-1.48,1.29,-0.07,-9.69,0.49,-2.53,0,0,0,-9.76,0.53,-0.73,18.7696480751038
,0,0.26,0.69,-0.21,0.64,-1.12,0.97,-0.03,-9.85,-2.04,-1.31,0,0,0,-9.75,0.54,-0.81,18.7871277332306
,0,0.26,0.69,-0.2,0.64,-0.04,0.89,0.04,-10.24,-0.85,-1.62,0,0,0,-9.74,0.55,-0.98,18.802307844162
,0,0.27,0.7,-0.2,0.63,0.34,0.88,0.09,-10.02,0.43,-1.77,0,0,0,-9.72,0.56,-1.15,18.8194444179535
,0,0.27,0.7,-0.2,0.63,0.18,0.87,0.16,-9.62,2.46,-1.68,0,0,0,-9.71,0.57,-1.23,18.8371739387512
,0,0.27,0.71,-0.2,0.63,-0.5,0.82,0.16,-9.61,2,-2.06,0,0,0,-9.68,0.61,-1.38,18.8528487682343
,0,0.27,0.71,-0.19,0.62,-0.79,0.82,0.12,-9.83,0.93,-2.22,0,0,0,-9.66,0.66,-1.53,18.8703074455261
,0,0.27,0.71,-0.18,0.62,-0.78,0.8,0.08,-9.69,0.94,-2,0,0,0,-9.65,0.67,-1.6,18.8868327140808
,0,0.27,0.72,-0.18,0.62,-0.44,0.72,0.11,-9.84,0.81,-2.62,0,0,0,-9.62,0.71,-1.73,18.9025702476501
,0,0.27,0.72,-0.17,0.61,-0.26,0.7,0.1,-10.19,1.09,-2.65,0,0,0,-9.6,0.74,-1.86,18.9199962615967
,0,0.27,0.73,-0.17,0.61,-0.23,0.65,0.07,-9.68,1.19,-2.77,0,0,0,-9.58,0.75,-1.91,18.937117099762
,0,0.27,0.73,-0.17,0.61,-0.23,0.6,0.07,-9.81,0.98,-2.7,0,0,0,-9.56,0.77,-2.02,18.9526619911194
,0,0.27,0.73,-0.17,0.6,-0.18,0.57,0.06,-9.52,0.63,-2.91,0,0,0,-9.53,0.79,-2.13,18.9699025154114
,0,0.27,0.73,-0.16,0.6,0,0.52,0.06,-9.58,0.78,-2.7,0,0,0,-9.52,0.79,-2.17,18.9871783256531
,0,0.27,0.74,-0.16,0.6,0.09,0.44,0.07,-9.71,0.74,-2.5,0,0,0,-9.5,0.8,-2.26,19.0029468536377
,0,0.27,0.74,-0.16,0.6,0.14,0.4,0.08,-9.39,0.86,-2.87,0,0,0,-9.48,0.81,-2.34,19.020215511322
,0,0.27,0.74,-0.16,0.59,0.16,0.37,0.08,-9.46,0.91,-2.42,0,0,0,-9.47,0.81,-2.37,19.0373682975769
,0,0.27,0.74,-0.16,0.59,0.13,0.32,0.08,-9.28,1.37,-2.32,0,0,0,-9.46,0.82,-2.43,19.0532813072205
,0,0.28,0.74,-0.16,0.59,0.07,0.3,0.08,-9.47,1.19,-2.62,0,0,0,-9.44,0.83,-2.49,19.0702979564667
,0,0.28,0.74,-0.16,0.59,-0.05,0.3,0.06,-9.21,0.92,-2.83,0,0,0,-9.43,0.84,-2.52,19.0881090164185
,0,0.28,0.74,-0.16,0.59,0,0.28,0.05,-9.25,0.75,-2.93,0,0,0,-9.42,0.85,-2.57,19.1038646697998
,0,0.28,0.75,-0.16,0.58,0.07,0.29,0.06,-9.56,1.24,-2.55,0,0,0,-9.4,0.86,-2.63,19.120438337326
,0,0.28,0.75,-0.16,0.58,0.15,0.3,0.05,-9.32,1.46,-2.66,0,0,0,-9.39,0.86,-2.65,19.1374478340149
,0,0.28,0.75,-0.16,0.58,0.17,0.3,0.05,-9.32,1.31,-2.59,0,0,0,-9.38,0.86,-2.71,19.1534128189087
,0,0.28,0.75,-0.16,0.58,0.17,0.32,0.04,-9.36,1.34,-2.54,0,0,0,-9.36,0.86,-2.77,19.1700785160065
,0,0.28,0.75,-0.16,0.58,0.15,0.36,0.03,-9.35,1.22,-2.24,0,0,0,-9.35,0.86,-2.81,19.1877949237823
,0,0.29,0.75,-0.16,0.57,0.13,0.39,0.02,-9.32,1.21,-2.33,0,0,0,-9.33,0.86,-2.87,19.2025804519653
,0,0.29,0.75,-0.16,0.57,0.13,0.42,0.03,-9.25,0.93,-2.54,0,0,0,-9.31,0.87,-2.93,19.2201762199402
,0,0.29,0.75,-0.16,0.57,0.1,0.49,0.02,-9.31,1.05,-2.48,0,0,0,-9.3,0.87,-2.97,19.2374339103699
,0,0.29,0.76,-0.16,0.57,0.09,0.56,-0.01,-9.56,1.3,-2.67,0,0,0,-9.27,0.87,-3.05,19.2519223690033
,0,0.29,0.76,-0.16,0.56,0.09,0.6,-0.02,-9.45,1.23,-2.87,0,0,0,-9.24,0.87,-3.16,19.2702782154083
,0,0.29,0.76,-0.16,0.56,0.12,0.65,-0.03,-9.28,1.42,-3.29,0,0,0,-9.22,0.86,-3.21,19.2881596088409
,0,0.29,0.76,-0.15,0.55,0.16,0.71,-0.06,-9.66,1.07,-3.01,0,0,0,-9.17,0.84,-3.34,19.3037676811218
,0,0.29,0.77,-0.15,0.55,0.2,0.74,-0.06,-9.88,0.9,-3.28,0,0,0,-9.13,0.81,-3.48,19.3209102153778
,0,0.3,0.77,-0.16,0.54,0.33,0.82,-0.09,-10.35,1.01,-2.96,0,0,0,-9.1,0.8,-3.55,19.33873462677
,0,0.3,0.78,-0.16,0.53,0.36,0.9,-0.11,-10.51,1.66,-2.56,0,0,0,-9.04,0.75,-3.71,19.3553240299225
,0,0.3,0.78,-0.16,0.53,0.36,0.94,-0.11,-10.82,0.73,-2.38,0,0,0,-8.97,0.7,-3.89,19.3710000514984
,0,0.3,0.79,-0.16,0.52,0.52,1.07,-0.17,-10.72,0.79,-2.53,0,0,0,-8.93,0.67,-3.99,19.3886613845825
,0,0.31,0.79,-0.16,0.51,0.66,1.24,-0.17,-10.6,0,-2,0,0,0,-8.83,0.59,-4.2,19.4054665565491
,0,0.31,0.79,-0.16,0.5,0.73,1.34,-0.19,-10.96,0.06,-1.6,0,0,0,-8.72,0.49,-4.45,19.4217092990875
,0,0.32,0.8,-0.17,0.48,0.94,1.57,-0.2,-11.3,0,-1.73,0,0,0,-8.65,0.43,-4.58,19.4386343955994
,0,0.32,0.8,-0.17,0.47,1.07,1.82,-0.2,-11.54,-0.77,-2.26,0,0,0,-8.49,0.3,-4.88,19.455721616745
,0,0.33,0.81,-0.17,0.45,1.19,1.95,-0.2,-12.91,-1.41,-1.77,0,0,0,-8.3,0.14,-5.21,19.4716079235077
,0,0.34,0.82,-0.18,0.43,1.59,2.09,-0.17,-13.13,-1.29,-1.89,0,0,0,-8.19,0.05,-5.38,19.4892110824585
,0,0.34,0.82,-0.18,0.42,2.02,2.04,-0.1,-12.6,0.2,-1.89,0,0,0,-7.97,-0.17,-5.7,19.505872964859
,0,0.35,0.83,-0.2,0.4,2.14,1.9,-0.06,-10.16,1.48,-4.02,0,0,0,-7.75,-0.42,-5.99,19.5213634967804
,0,0.36,0.83,-0.2,0.37,1.83,2.24,-0.2,-10.3,2.56,-5.98,0,0,0,-7.61,-0.54,-6.15,19.5391061306
,0,0.36,0.84,-0.2,0.36,0.91,2.62,-0.35,-11.61,2.76,-7.47,0,0,0,-7.3,-0.73,-6.5,19.5560517311096
,0,0.37,0.84,-0.2,0.33,0.62,2.63,-0.27,-9.82,0.78,-7.44,0,0,0,-6.96,-0.83,-6.85,19.571949005127
,0,0.37,0.85,-0.19,0.31,0.29,2.38,-0.17,-9.29,0.92,-7.39,0,0,0,-6.8,-0.86,-7,19.5890889167786
,0,0.37,0.85,-0.19,0.31,0.09,1.88,0.03,-9.23,-0.8,-3.01,0,0,0,-6.52,-0.88,-7.26,19.6066868305206
,0,0.38,0.86,-0.18,0.3,0.16,1.22,0.33,-8.16,-0.5,-1.27,0,0,0,-6.32,-0.87,-7.44,19.6221396923065
,0,0.39,0.86,-0.19,0.29,0.45,0.87,0.36,-7.27,-0.52,-1.56,0,0,0,-6.26,-0.88,-7.48,19.6396615505219
,0,0.39,0.85,-0.19,0.28,0.86,0.25,0.33,-6.78,-0.91,-2.45,0,0,0,-6.21,-0.95,-7.52,19.6566042900085
,0,0.4,0.85,-0.2,0.28,0.99,-0.33,0.24,-6.61,-0.37,-2.53,0,0,0,-6.24,-1.06,-7.48,19.6718351840973
,0,0.4,0.84,-0.21,0.29,0.95,-0.61,0.19,-6.34,-0.1,-2.54,0,0,0,-6.29,-1.12,-7.43,19.6894836425781
,0,0.4,0.84,-0.21,0.29,0.69,-1.15,0.17,-5.91,0.38,-2.87,0,0,0,-6.44,-1.21,-7.29,19.7063701152802
,0,0.4,0.84,-0.22,0.3,0.27,-1.7,0.25,-5.88,1.01,-3.52,0,0,0,-6.66,-1.23,-7.08,19.7219085693359
,0,0.4,0.83,-0.23,0.32,0.02,-1.97,0.32,-5.92,1.09,-3.79,0,0,0,-6.8,-1.21,-6.95,19.7396061420441
,0,0.4,0.82,-0.23,0.33,-0.49,-2.45,0.46,-6.71,0.66,-3.73,0,0,0,-7.12,-1.11,-6.65,19.756795167923
,0,0.4,0.81,-0.23,0.36,-0.82,-2.85,0.55,-6.97,-0.25,-4.2,0,0,0,-7.47,-0.94,-6.27,19.7719247341156
,0,0.39,0.8,-0.23,0.38,-0.85,-3.01,0.57,-7.45,-1.02,-4.71,0,0,0,-7.84,-0.75,-5.83,19.7897627353668
,0,0.39,0.8,-0.24,0.4,-0.65,-3.27,0.58,-8.05,-1.34,-4.91,0,0,0,-8.03,-0.67,-5.58,19.80695104599
,0,0.38,0.78,-0.24,0.43,-0.29,-3.49,0.55,-8.58,-1.01,-5.13,0,0,0,-8.39,-0.54,-5.04,19.8220932483673
,0,0.38,0.76,-0.25,0.46,-0.14,-3.57,0.54,-9.03,-0.66,-5.36,0,0,0,-8.72,-0.45,-4.44,19.8397970199585
,0,0.37,0.76,-0.26,0.47,-0.03,-3.7,0.54,-9.81,0.41,-5.61,0,0,0,-8.88,-0.4,-4.13,19.8580074310303
,0,0.37,0.74,-0.27,0.5,-0.22,-3.75,0.57,-10.23,1,-6.28,0,0,0,-9.16,-0.29,-3.48,19.8736696243286
,0,0.36,0.72,-0.28,0.53,-0.39,-3.78,0.57,-9.96,0.7,-6.66,0,0,0,-9.39,-0.16,-2.8,19.8909301757812
,0,0.35,0.71,-0.28,0.54,-0.75,-3.77,0.56,-10,0.27,-6.76,0,0,0,-9.49,-0.09,-2.45,19.9081492424011
,0,0.34,0.69,-0.28,0.57,-0.99,-3.65,0.55,-10.06,0.08,-6.74,0,0,0,-9.64,0.04,-1.77,19.9260146617889
,0,0.33,0.67,-0.28,0.6,-1.09,-3.56,0.53,-9.99,-0.06,-6.8,0,0,0,-9.74,0.17,-1.11,19.9415307044983
,0,0.32,0.65,-0.28,0.63,-1.22,-3.28,0.48,-9.95,0.22,-6.83,0,0,0,-9.77,0.23,-0.8,19.9589841365814
,0,0.31,0.64,-0.28,0.64,-1.31,-2.88,0.39,-9.94,0.34,-6.79,0,0,0,-9.79,0.32,-0.23,19.9787466526031
,0,0.3,0.63,-0.28,0.66,-1.35,-2.42,0.28,-9.27,0.44,-6.99,0,0,0,-9.79,0.38,0.25,19.9932310581207
,0,0.28,0.62,-0.28,0.68,-1.32,-2.15,0.24,-8.68,0.3,-7.17,0,0,0,-9.77,0.41,0.64,20.0095229148865
,0,0.28,0.61,-0.27,0.69,-1.08,-1.55,0.2,-7.07,0.55,-7.9,0,0,0,-9.76,0.42,0.79,20.0293385982513
,0,0.27,0.61,-0.27,0.69,-0.73,-0.87,0.24,-5.98,0.42,-8.38,0,0,0,-9.74,0.45,1,20.0438380241394
,0,0.27,0.61,-0.27,0.7,-0.57,-0.45,0.25,-6.12,0.36,-8.4,0,0,0,-9.73,0.49,1.05,20.0606844425201
,0,0.27,0.61,-0.26,0.69,-0.31,0.32,0.2,-6.71,0.29,-7.53,0,0,0,-9.74,0.52,0.96,20.0805666446686
,0,0.27,0.62,-0.26,0.69,0.14,0.75,0.18,-15.65,-1.18,7.49,0,0,0,-9.75,0.54,0.89,20.0950109958649
,0,0.28,0.62,-0.26,0.69,0.42,0.44,0.18,-10.33,-2.66,5.25,0,0,0,-9.75,0.57,0.82,20.1108500957489
,0,0.28,0.62,-0.26,0.68,-0.08,0.54,0.04,-11.55,-2.45,2.77,0,0,0,-9.76,0.57,0.7,20.1303448677063
,0,0.28,0.63,-0.26,0.68,-0.16,0.93,-0.02,-10.96,-2.71,-1.32,0,0,0,-9.77,0.57,0.61,20.1451146602631
,0,0.28,0.63,-0.25,0.67,0.13,1.11,-0.01,-10.79,1.64,0.27,0,0,0,-9.78,0.57,0.39,20.161162853241
,0,0.29,0.64,-0.25,0.67,0.29,1.21,0.08,-10.02,2.9,-0.59,0,0,0,-9.78,0.59,0.16,20.1805503368378
,0,0.29,0.64,-0.25,0.66,-0.58,1.2,0.1,-8.88,4.88,-3.32,0,0,0,-9.78,0.6,0.05,20.1955320835114
,0,0.28,0.65,-0.24,0.66,-1.12,1.14,0.05,-10.13,2.23,-1.95,0,0,0,-9.78,0.61,-0.13,20.2112009525299
,0,0.27,0.66,-0.22,0.66,-1.53,0.98,0.02,-10.01,0.65,-1.95,0,0,0,-9.78,0.61,-0.3,20.2307369709015
,0,0.27,0.67,-0.22,0.66,-1.01,0.89,-0.01,-9.9,-1.64,-1.42,0,0,0,-9.77,0.62,-0.38,20.2455184459686
,0,0.27,0.67,-0.22,0.65,-0.44,0.85,0.01,-9.87,-1.63,-1.15,0,0,0,-9.77,0.62,-0.53,20.2613022327423
,0,0.28,0.68,-0.22,0.65,0.56,0.84,0.11,-9.52,-0.83,-1.24,0,0,0,-9.75,0.64,-0.7,20.280711889267
,0,0.28,0.68,-0.22,0.64,0.87,0.8,0.18,-9.85,0.66,-0.96,0,0,0,-9.75,0.65,-0.78,20.2954869270325
,0,0.29,0.68,-0.22,0.64,0.71,0.79,0.21,-9.95,2.66,-1.72,0,0,0,-9.73,0.68,-0.94,20.3115820884705
,0,0.29,0.69,-0.21,0.63,-0.09,0.78,0.21,-9.96,2.37,-1.99,0,0,0,-9.71,0.73,-1.08,20.3306803703308
,0,0.29,0.69,-0.21,0.63,-0.61,0.72,0.15,-9.61,1.28,-2.1,0,0,0,-9.71,0.75,-1.14,20.3454978466034
,0,0.29,0.69,-0.2,0.63,-0.57,0.68,0.14,-9.7,0.44,-2.16,0,0,0,-9.69,0.78,-1.26,20.3615159988403
,0,0.29,0.7,-0.2,0.62,-0.18,0.65,0.14,-10.06,0.58,-2.15,0,0,0,-9.67,0.81,-1.38,20.3808357715607
,0,0.29,0.7,-0.2,0.62,0.21,0.63,0.13,-10.29,1.57,-2.06,0,0,0,-9.66,0.82,-1.44,20.3955051898956
,0,0.3,0.7,-0.2,0.62,0.2,0.59,0.12,-10.03,0.89,-2.2,0,0,0,-9.64,0.83,-1.55,20.4117953777313
,0,0.3,0.7,-0.2,0.61,0.17,0.51,0.07,-10.03,0.63,-1.82,0,0,0,-9.62,0.84,-1.65,20.4307103157043
,0,0.3,0.7,-0.2,0.61,0.27,0.48,0.08,-9.46,0.61,-1.97,0,0,0,-9.62,0.84,-1.7,20.4447407722473
,0,0.31,0.71,-0.2,0.61,0.37,0.48,0.09,-9.7,0.83,-1.67,0,0,0,-9.6,0.85,-1.79,20.4612674713135
,0,0.31,0.71,-0.2,0.6,0.59,0.45,0.09,-9.6,1.15,-1.57,0,0,0,-9.59,0.84,-1.84,20.4802706241608
,0,0.31,0.71,-0.2,0.6,0.55,0.42,0.07,-9.21,1.96,-2.29,0,0,0,-9.57,0.84,-1.93,20.4949245452881
,0,0.32,0.71,-0.2,0.6,0.42,0.43,0.05,-9.2,2,-2.35,0,0,0,-9.56,0.83,-2.01,20.5105831623077
,0,0.32,0.71,-0.2,0.59,0.13,0.43,0.01,-9.25,1.57,-1.89,0,0,0,-9.55,0.83,-2.05,20.5302197933197
,0,0.32,0.71,-0.2,0.59,-0.06,0.45,-0.01,-9.17,1.35,-2.31,0,0,0,-9.53,0.83,-2.13,20.544801235199
,0,0.32,0.72,-0.2,0.59,-0.09,0.47,-0.02,-9.4,1.16,-2.4,0,0,0,-9.51,0.83,-2.22,20.5610082149506
,0,0.32,0.72,-0.2,0.58,-0.09,0.49,-0.04,-9.33,1.02,-2.42,0,0,0,-9.5,0.83,-2.27,20.5791370868683
,0,0.32,0.72,-0.2,0.58,-0.03,0.49,-0.04,-9.39,1.11,-2.16,0,0,0,-9.48,0.82,-2.36,20.5944471359253
,0,0.32,0.72,-0.2,0.58,-0,0.5,-0.04,-9.5,1.02,-2.23,0,0,0,-9.45,0.82,-2.45,20.6108002662659
,0,0.32,0.72,-0.2,0.58,0.04,0.53,-0.04,-9.42,1.41,-2.16,0,0,0,-9.44,0.82,-2.49,20.6291229724884
,0,0.32,0.73,-0.2,0.57,-0.03,0.56,-0.05,-9.37,1.58,-2.47,0,0,0,-9.42,0.81,-2.6,20.6445949077606
,0,0.32,0.73,-0.19,0.57,-0.1,0.58,-0.06,-9.28,1.57,-2.58,0,0,0,-9.39,0.8,-2.7,20.6605706214905
,0,0.32,0.73,-0.19,0.57,-0.24,0.61,-0.08,-9.38,1.34,-2.49,0,0,0,-9.37,0.8,-2.75,20.6772108078003
,0,0.32,0.74,-0.19,0.56,-0.29,0.63,-0.1,-9.43,0.83,-2.6,0,0,0,-9.34,0.81,-2.86,20.6938436031342
,0,0.32,0.74,-0.18,0.56,-0.28,0.65,-0.1,-9.47,0.97,-2.62,0,0,0,-9.3,0.81,-2.98,20.7110879421234
,0,0.32,0.74,-0.18,0.56,-0.27,0.68,-0.1,-9.37,1.04,-3.02,0,0,0,-9.28,0.8,-3.03,20.7287821769714
,0,0.32,0.75,-0.18,0.55,-0.24,0.71,-0.12,-9.49,0.72,-3.2,0,0,0,-9.24,0.8,-3.16,20.7442209720612
,0,0.32,0.75,-0.18,0.55,-0.18,0.72,-0.12,-9.45,0.5,-3.12,0,0,0,-9.2,0.79,-3.28,20.7611134052277
,0,0.32,0.76,-0.18,0.55,-0.08,0.72,-0.11,-9.47,0.47,-3.44,0,0,0,-9.18,0.78,-3.35,20.778092622757
,0,0.32,0.76,-0.17,0.54,0.04,0.74,-0.13,-9.88,0.35,-3.4,0,0,0,-9.13,0.76,-3.48,20.7939310073853
,0,0.32,0.76,-0.17,0.53,0.09,0.75,-0.13,-9.83,0.34,-3.58,0,0,0,-9.08,0.73,-3.61,20.810608625412
,0,0.32,0.77,-0.17,0.53,0.18,0.78,-0.11,-9.69,0.75,-3.72,0,0,0,-9.05,0.71,-3.68,20.8288290500641
,0,0.32,0.77,-0.17,0.52,0.28,0.83,-0.12,-10.44,1.57,-3.1,0,0,0,-9,0.67,-3.83,20.8451733589172
,0,0.32,0.77,-0.17,0.52,0.3,0.87,-0.12,-10.22,1.3,-3,0,0,0,-8.93,0.63,-3.99,20.8611228466034
,0,0.32,0.78,-0.17,0.51,0.45,0.99,-0.17,-9.87,1.32,-2.47,0,0,0,-8.89,0.59,-4.08,20.8789131641388
,0,0.33,0.78,-0.17,0.5,0.47,1.17,-0.22,-10.64,1.87,-2.17,0,0,0,-8.8,0.52,-4.28,20.8950371742249
,0,0.33,0.79,-0.17,0.49,0.41,1.27,-0.25,-11.06,0.99,-2.01,0,0,0,-8.69,0.44,-4.51,20.9116299152374
,0,0.33,0.8,-0.18,0.48,0.47,1.51,-0.28,-11.19,-0.21,-1.73,0,0,0,-8.63,0.4,-4.63,20.9298796653748
,0,0.33,0.8,-0.18,0.47,0.79,1.76,-0.26,-11.66,-0.39,-2.07,0,0,0,-8.47,0.29,-4.92,20.9452738761902
,0,0.34,0.81,-0.18,0.45,0.9,1.89,-0.24,-12,-0.52,-2.12,0,0,0,-8.28,0.16,-5.24,20.9614470005035
,0,0.34,0.81,-0.18,0.44,1.07,2.06,-0.22,-12.67,-0.76,-1.83,0,0,0,-8.17,0.08,-5.41,20.979291677475
,0,0.35,0.82,-0.18,0.42,1.28,2.1,-0.21,-12.29,-0.28,-2.16,0,0,0,-7.95,-0.08,-5.73,20.9952101707458
