Header,TimeStamp,QuatX,QuatY,QuatZ,QuatW,GyroX,GyroY,GyroZ,AccelX,AccelY,AccelZ,EulerX,EulerY,EulerZ,GravityX,GravityY,GravityZ,TimeStampGlob
,0,0.41,0.76,-0.27,0.42,1.35,1.94,-0.65,-13.09,-1.09,-1.4,0,0,0,-8.46,-0.64,-4.9,0.219286441802979
,0,0.41,0.77,-0.27,0.41,1.55,2.13,-0.69,-12.08,1.53,-4.77,0,0,0,-8.35,-0.78,-5.07,0.233966827392578
,0,0.42,0.78,-0.28,0.39,1.46,2.24,-0.77,-13.12,0.72,-3.11,0,0,0,-8.11,-1.04,-5.4,0.249436140060425
,0,0.42,0.78,-0.28,0.36,1.26,2.14,-0.82,-11.29,1.43,-4.46,0,0,0,-7.87,-1.3,-5.7,0.26988697052002
,0,0.42,0.79,-0.28,0.35,0.95,2.01,-0.96,-10.59,-0.17,-6.96,0,0,0,-7.74,-1.43,-5.84,0.283920526504517
,0,0.42,0.8,-0.28,0.33,0.6,1.94,-0.97,-9.84,0.16,-6.46,0,0,0,-7.5,-1.62,-6.1,0.299857378005981
,0,0.42,0.8,-0.28,0.32,0.08,1.74,-0.85,-9.27,-0.19,-5.99,0,0,0,-7.27,-1.73,-6.34,0.319794178009033
,0,0.42,0.81,-0.27,0.31,-0.31,1.21,-0.63,-8.36,0.73,-0.52,0,0,0,-7.19,-1.76,-6.43,0.334758996963501
,0,0.42,0.81,-0.27,0.31,-0.27,0.86,-0.45,-7.62,0.72,-0.78,0,0,0,-7.09,-1.77,-6.53,0.350393056869507
,0,0.41,0.81,-0.27,0.31,-0.42,0.21,-0.19,-6.25,1.47,0.43,0,0,0,-7.07,-1.73,-6.55,0.369859457015991
,0,0.41,0.81,-0.27,0.31,-0.31,-0.45,0.08,-6.01,1.26,-0.9,0,0,0,-7.1,-1.71,-6.53,0.384368419647217
,0,0.41,0.81,-0.27,0.32,-0.25,-0.78,0.2,-6.03,0.79,-1.71,0,0,0,-7.23,-1.64,-6.41,0.400219678878784
,0,0.41,0.8,-0.27,0.33,-0.21,-1.35,0.41,-5.66,0,-1.78,0,0,0,-7.43,-1.55,-6.2,0.420301675796509
,0,0.41,0.8,-0.27,0.34,-0.35,-1.93,0.52,-5.94,-0.13,-2.2,0,0,0,-7.55,-1.49,-6.07,0.435158252716064
,0,0.41,0.79,-0.27,0.36,-0.33,-2.17,0.59,-6.46,0.24,-2.37,0,0,0,-7.83,-1.35,-5.74,0.449990749359131
,0,0.4,0.78,-0.28,0.39,-0.46,-2.64,0.76,-7.31,0.42,-2.32,0,0,0,-8.14,-1.18,-5.32,0.470282793045044
,0,0.4,0.77,-0.28,0.4,-0.51,-3,0.94,-8.06,-0.03,-3.29,0,0,0,-8.3,-1.08,-5.09,0.484668254852295
,0,0.4,0.76,-0.28,0.43,-0.54,-3.14,1.01,-8.41,-0.31,-3.67,0,0,0,-8.62,-0.86,-4.57,0.500460386276245
,0,0.4,0.74,-0.29,0.46,-0.51,-3.39,1.12,-10.09,-1.03,-4.12,0,0,0,-8.93,-0.62,-4,0.520500898361206
,0,0.39,0.73,-0.29,0.48,-0.39,-3.61,1.22,-10.84,-0.97,-4.27,0,0,0,-9.07,-0.5,-3.68,0.535218715667725
,0,0.39,0.71,-0.3,0.51,-0.34,-3.7,1.27,-11.06,-0.8,-4.11,0,0,0,-9.32,-0.25,-3.02,0.551196098327637
,0,0.39,0.68,-0.3,0.54,-0.23,-3.87,1.34,-11.22,-0.48,-4.27,0,0,0,-9.53,0,-2.3,0.569962739944458
,0,0.39,0.67,-0.31,0.55,-0.24,-4.03,1.43,-11.73,-0.22,-4.89,0,0,0,-9.61,0.13,-1.93,0.584692239761353
,0,0.38,0.64,-0.31,0.59,-0.27,-4.09,1.47,-12,-0.07,-4.83,0,0,0,-9.72,0.42,-1.16,0.60091495513916
,0,0.38,0.62,-0.32,0.62,-0.32,-4.06,1.6,-12.55,0.42,-5.27,0,0,0,-9.77,0.74,-0.39,0.620532512664795
,0,0.37,0.6,-0.32,0.63,-0.68,-3.99,1.64,-12.22,0,-5.62,0,0,0,-9.76,0.89,-0.01,0.635116338729858
,0,0.37,0.57,-0.32,0.66,-0.79,-3.89,1.64,-12.11,-0.18,-5.98,0,0,0,-9.7,1.19,0.72,0.650400161743164
,0,0.36,0.55,-0.31,0.69,-0.77,-3.63,1.59,-11.74,-0.48,-6.81,0,0,0,-9.59,1.47,1.4,0.670552730560303
,0,0.36,0.53,-0.31,0.7,-0.53,-3.2,1.5,-10.3,-0.77,-9.32,0,0,0,-9.52,1.6,1.7,0.68513298034668
,0,0.35,0.51,-0.31,0.72,-0.44,-2.89,1.42,-8.64,-1.91,-9.51,0,0,0,-9.37,1.84,2.21,0.70084023475647
,0,0.35,0.5,-0.31,0.73,-0.24,-2.08,1.14,-6.95,-1.86,-9.07,0,0,0,-9.24,2.02,2.55,0.721154451370239
,0,0.35,0.49,-0.31,0.74,0.17,-1.19,0.83,-5.63,-1.26,-9.35,0,0,0,-9.2,2.1,2.65,0.735718488693237
,0,0.36,0.48,-0.31,0.74,0.44,-0.74,0.7,-4.91,-1.11,-9.43,0,0,0,-9.15,2.23,2.72,0.751087427139282
,0,0.36,0.48,-0.31,0.73,0.6,0.24,0.28,-5.15,-1.09,-9.48,0,0,0,-9.17,2.29,2.61,0.770512104034424
,0,0.37,0.49,-0.31,0.73,0.3,1.27,-0.24,-8.63,2.68,-4.9,0,0,0,-9.2,2.27,2.49,0.785362243652344
,0,0.37,0.5,-0.3,0.72,-0.32,1.67,-0.56,-18.32,4.53,32.15,0,0,0,-9.3,2.17,2.19,0.801342487335205
,0,0.37,0.51,-0.3,0.72,1,1.23,0.11,-16.72,4.06,1.47,0,0,0,-9.34,2.19,1.99,0.820983171463013
,0,0.37,0.52,-0.3,0.71,-0.74,0.97,-0.13,-13.81,-3.8,0.61,0,0,0,-9.36,2.17,1.92,0.83555269241333
,0,0.37,0.53,-0.29,0.71,-0.54,1.18,-0.3,-10.7,0.33,0.3,0,0,0,-9.42,2.08,1.7,0.8516526222229
,0,0.37,0.54,-0.29,0.7,0.26,1.46,-0.54,-10.84,2.88,-0.27,0,0,0,-9.49,2,1.42,0.870530843734741
,0,0.37,0.54,-0.29,0.69,-0.14,1.44,-0.39,-9.4,2.62,-2.03,0,0,0,-9.51,1.96,1.29,0.885249853134155
,0,0.37,0.56,-0.29,0.69,-0.42,1.39,-0.38,-8.66,3.4,-3.18,0,0,0,-9.56,1.87,1.07,0.901521921157837
,0,0.36,0.57,-0.28,0.68,-1.27,1.32,-0.39,-9.86,2.66,-2.48,0,0,0,-9.6,1.78,0.88,0.920814037322998
,0,0.36,0.57,-0.27,0.68,-1.29,1.11,-0.27,-11.1,0.48,-1.4,0,0,0,-9.61,1.75,0.79,0.934904098510742
,0,0.36,0.58,-0.27,0.68,-0.96,0.9,-0.16,-9.88,-2.04,-0.76,0,0,0,-9.63,1.72,0.66,0.951582908630371
,0,0.36,0.59,-0.27,0.67,0.22,0.79,0.05,-9.44,-1.77,-1.05,0,0,0,-9.63,1.73,0.5,0.971006393432617
,0,0.37,0.59,-0.27,0.67,1.09,0.69,-0.07,-9.8,0.28,-1.16,0,0,0,-9.64,1.73,0.42,0.985558986663818
,0,0.37,0.59,-0.27,0.66,0.94,0.75,-0.1,-9.82,3.5,-2.21,0,0,0,-9.65,1.71,0.24,1.0014283657074
,0,0.38,0.6,-0.27,0.66,0.49,0.92,-0.1,-10.03,3.15,-1.5,0,0,0,-9.65,1.69,0.06,1.02092981338501
,0,0.38,0.6,-0.27,0.65,0.1,0.93,-0.11,-9.73,2.44,-1.24,0,0,0,-9.66,1.68,-0.02,1.03553104400635
,0,0.38,0.6,-0.27,0.65,0.05,0.86,-0.11,-9.91,2.68,-1.01,0,0,0,-9.66,1.66,-0.18,1.052090883255
,0,0.38,0.61,-0.26,0.64,0.06,0.74,-0.11,-10.18,1.26,-0.89,0,0,0,-9.66,1.64,-0.31,1.07119154930115
,0,0.38,0.61,-0.26,0.64,0.1,0.66,-0.14,-10.53,1.51,-0.66,0,0,0,-9.66,1.63,-0.38,1.08562660217285
,0,0.38,0.62,-0.26,0.64,-0.01,0.62,-0.17,-9.8,1.62,-1.02,0,0,0,-9.66,1.6,-0.49,1.10145664215088
,0,0.38,0.62,-0.26,0.63,-0.26,0.61,-0.17,-9.76,1.65,-1.15,0,0,0,-9.66,1.57,-0.59,1.12063121795654
,0,0.38,0.62,-0.26,0.63,-0.41,0.58,-0.18,-9.61,0.89,-1.37,0,0,0,-9.66,1.55,-0.64,1.13524103164673
,0,0.38,0.63,-0.26,0.63,-0.3,0.59,-0.17,-9.32,0.69,-1.68,0,0,0,-9.65,1.52,-0.75,1.15157866477966
,0,0.38,0.63,-0.26,0.62,0.07,0.62,-0.19,-9.43,0.5,-1.77,0,0,0,-9.65,1.48,-0.87,1.17102456092834
,0,0.38,0.63,-0.26,0.62,0.44,0.66,-0.22,-9.31,1.26,-1.5,0,0,0,-9.65,1.46,-0.94,1.18564915657043
,0,0.38,0.64,-0.26,0.61,0.51,0.68,-0.23,-9.32,2,-1.74,0,0,0,-9.64,1.41,-1.08,1.20178818702698
,0,0.39,0.64,-0.26,0.61,0.42,0.75,-0.24,-9.28,1.94,-1.8,0,0,0,-9.63,1.35,-1.23,1.22111678123474
,0,0.39,0.65,-0.26,0.61,0.2,0.76,-0.26,-9.39,1.66,-1.54,0,0,0,-9.62,1.33,-1.31,1.23583269119263
,0,0.39,0.65,-0.26,0.6,0.11,0.76,-0.26,-9.5,1.66,-1.99,0,0,0,-9.61,1.28,-1.45,1.25179052352905
,0,0.39,0.66,-0.26,0.59,0.07,0.76,-0.24,-9.63,1.73,-1.9,0,0,0,-9.59,1.24,-1.59,1.27140974998474
,0,0.39,0.66,-0.26,0.59,-0.09,0.69,-0.25,-9.83,0.92,-2,0,0,0,-9.58,1.21,-1.66,1.28570413589478
,0,0.39,0.66,-0.25,0.59,-0.14,0.7,-0.26,-9.77,0.93,-2.07,0,0,0,-9.57,1.17,-1.78,1.3021879196167
,0,0.39,0.67,-0.25,0.58,-0.12,0.75,-0.24,-9.74,0.78,-2.75,0,0,0,-9.54,1.13,-1.92,1.32169127464294
,0,0.39,0.67,-0.25,0.58,-0.11,0.79,-0.25,-9.65,0.51,-2.45,0,0,0,-9.53,1.11,-1.99,1.33625197410583
,0,0.39,0.68,-0.25,0.57,-0.07,0.8,-0.26,-9.78,0.24,-3.07,0,0,0,-9.5,1.07,-2.14,1.35244584083557
,0,0.39,0.68,-0.25,0.57,-0,0.83,-0.25,-10.42,0.28,-2.28,0,0,0,-9.47,1.02,-2.3,1.37113690376282
,0,0.39,0.69,-0.25,0.56,0.22,0.86,-0.22,-10.42,0.77,-2.9,0,0,0,-9.46,0.99,-2.38,1.38604640960693
,0,0.39,0.69,-0.25,0.56,0.2,0.84,-0.2,-10.35,0.53,-2.7,0,0,0,-9.42,0.95,-2.54,1.40223479270935
,0,0.39,0.7,-0.25,0.55,0.2,0.86,-0.22,-10.22,0.57,-2.56,0,0,0,-9.38,0.89,-2.7,1.42132258415222
,0,0.39,0.7,-0.24,0.55,0.19,0.88,-0.25,-10.09,0.5,-2.55,0,0,0,-9.36,0.87,-2.78,1.43574452400208
,0,0.39,0.7,-0.24,0.54,0.21,0.89,-0.27,-10.23,0.67,-2.54,0,0,0,-9.32,0.8,-2.94,1.45212030410767
,0,0.4,0.71,-0.24,0.53,0.23,0.95,-0.33,-10.08,0.6,-2.78,0,0,0,-9.27,0.71,-3.1,1.47188997268677
,0,0.4,0.71,-0.24,0.53,0.31,1.04,-0.4,-10.44,0.99,-2.05,0,0,0,-9.24,0.67,-3.19,1.48664689064026
,0,0.4,0.72,-0.25,0.52,0.42,1.15,-0.47,-10.98,1.53,-1.51,0,0,0,-9.17,0.55,-3.41,1.50309276580811
,0,0.4,0.72,-0.25,0.5,0.62,1.22,-0.51,-11.08,2.09,-0.82,0,0,0,-9.09,0.41,-3.64,1.52138090133667
,0,0.4,0.73,-0.25,0.5,0.75,1.41,-0.6,-11.85,2.03,-1.03,0,0,0,-9.04,0.33,-3.77,1.53604388237
,0,0.4,0.74,-0.25,0.48,0.77,1.5,-0.65,-13.53,0.64,0.27,0,0,0,-8.93,0.16,-4.04,1.55263209342957
,0,0.41,0.74,-0.26,0.46,0.94,1.68,-0.69,-13.8,0.13,0.16,0,0,0,-8.79,-0.04,-4.34,1.57164072990417
,0,0.41,0.75,-0.26,0.45,1.27,1.81,-0.73,-13.89,0.03,0.46,0,0,0,-8.71,-0.15,-4.49,1.58602619171143
,0,0.42,0.76,-0.27,0.43,1.55,1.95,-0.75,-12.85,1.18,-1.59,0,0,0,-8.53,-0.41,-4.8,1.60260105133057
,0,0.42,0.76,-0.27,0.41,1.64,2.05,-0.75,-12.37,1.49,-2.82,0,0,0,-8.32,-0.69,-5.13,1.62156248092651
,0,0.43,0.77,-0.27,0.39,1.44,2.27,-0.92,-13.3,0.56,-2.65,0,0,0,-8.2,-0.84,-5.3,1.63724231719971
,0,0.43,0.78,-0.28,0.37,1.34,2.19,-0.97,-12.37,1.14,-3.59,0,0,0,-7.95,-1.13,-5.62,1.65314364433289
,0,0.43,0.78,-0.28,0.34,1.41,2.15,-1.01,-9.6,-0.65,-8.32,0,0,0,-7.68,-1.42,-5.92,1.67171168327332
,0,0.43,0.79,-0.28,0.33,0.61,2.11,-0.94,-10.13,-0.24,-6.94,0,0,0,-7.54,-1.52,-6.06,1.68689250946045
,0,0.43,0.8,-0.28,0.32,0.35,1.8,-0.67,-9.15,-0.15,-2.55,0,0,0,-7.29,-1.67,-6.33,1.70352339744568
,0,0.43,0.8,-0.28,0.3,0.08,1.44,-0.52,-8.18,0.76,0.76,0,0,0,-7.13,-1.74,-6.5,1.72192716598511
,0,0.43,0.8,-0.27,0.3,0.03,0.59,-0.09,-6.79,1.94,-0.06,0,0,0,-7.09,-1.74,-6.54,1.73665046691895
,0,0.43,0.8,-0.27,0.3,-0.12,-0.17,0.2,-6.48,1.7,1.3,0,0,0,-7.09,-1.71,-6.55,1.75310468673706
,0,0.43,0.8,-0.27,0.31,-0.12,-0.53,0.33,-5.82,-0.21,-1.63,0,0,0,-7.19,-1.64,-6.45,1.77203059196472
,0,0.43,0.8,-0.27,0.32,-0.21,-1.19,0.45,-5.67,-0.17,-1.46,0,0,0,-7.27,-1.6,-6.37,1.78664350509644
,0,0.44,0.79,-0.28,0.33,-0.18,-1.77,0.53,-6.28,-1.03,-0.61,0,0,0,-7.48,-1.5,-6.15,1.8029580116272
,0,0.43,0.78,-0.29,0.35,-0.19,-2.06,0.59,-6.4,0.1,-1.82,0,0,0,-7.75,-1.38,-5.83,1.82198429107666
,0,0.43,0.77,-0.29,0.36,-0.34,-2.58,0.74,-6.53,0.51,-2.72,0,0,0,-7.91,-1.31,-5.64,1.83665156364441
,0,0.43,0.76,-0.29,0.39,-0.62,-3.01,0.91,-7.21,0.19,-3,0,0,0,-8.23,-1.12,-5.2,1.85299944877625
,0,0.43,0.75,-0.3,0.42,-0.7,-3.17,1,-8.29,-0.61,-3.4,0,0,0,-8.56,-0.88,-4.68,1.87238740921021
,0,0.42,0.74,-0.3,0.43,-0.65,-3.48,1.19,-8.73,-0.78,-3.84,0,0,0,-8.73,-0.75,-4.4,1.88695168495178
,0,0.42,0.72,-0.31,0.46,-0.48,-3.72,1.32,-9.99,-1.11,-4.13,0,0,0,-9.03,-0.49,-3.77,1.90409588813782
,0,0.42,0.7,-0.31,0.5,-0.44,-3.82,1.37,-10.87,-0.67,-4.08,0,0,0,-9.3,-0.21,-3.09,1.92238092422485
,0,0.41,0.68,-0.31,0.51,-0.35,-4.02,1.44,-10.89,-0.64,-4.21,0,0,0,-9.41,-0.07,-2.73,1.93685173988342
,0,0.41,0.66,-0.32,0.54,-0.35,-4.18,1.54,-11.52,-0.17,-4.88,0,0,0,-9.6,0.21,-1.96,1.95361876487732
,0,0.4,0.63,-0.33,0.58,-0.4,-4.23,1.59,-12.11,0.21,-5.37,0,0,0,-9.72,0.53,-1.16,1.97280168533325
,0,0.4,0.62,-0.33,0.59,-0.57,-4.23,1.69,-12.2,0.23,-5.72,0,0,0,-9.75,0.7,-0.76,1.98726058006287
,0,0.39,0.59,-0.33,0.63,-0.97,-4.13,1.67,-12.18,0.41,-6.18,0,0,0,-9.75,1.02,0.03,2.00420570373535
,0,0.38,0.56,-0.33,0.66,-1.21,-4.02,1.63,-11.59,0.24,-8.55,0,0,0,-9.68,1.31,0.8,2.02255940437317
,0,0.37,0.55,-0.32,0.67,-1.49,-3.6,1.49,-11.19,-0.24,-9.98,0,0,0,-9.63,1.44,1.16,2.03717184066772
,0,0.36,0.53,-0.32,0.7,-1.77,-2.92,1.17,-10.22,-2.43,-10.45,0,0,0,-9.5,1.62,1.78,2.05449604988098
,0,0.35,0.52,-0.31,0.72,-1.76,-2.53,1,-8.23,-2.17,-10.35,0,0,0,-9.38,1.73,2.26,2.07308745384216
,0,0.34,0.51,-0.31,0.73,-1.23,-1.64,0.71,-7.07,-2.36,-10.9,0,0,0,-9.33,1.76,2.43,2.08799624443054
,0,0.33,0.51,-0.3,0.74,-0.65,-0.53,0.39,-5.7,-1.4,-11.64,0,0,0,-9.27,1.81,2.6,2.10537123680115
,0,0.33,0.51,-0.3,0.74,-0.45,0.05,0.17,-5.83,0.58,-11.27,0,0,0,-9.29,1.8,2.56,2.12296557426453
,0,0.33,0.51,-0.3,0.73,-0.5,1.2,-0.26,-7.9,1.6,-10.45,0,0,0,-9.32,1.77,2.46,2.13738346099854
,0,0.33,0.53,-0.29,0.73,-0.97,1.68,-0.53,-17.62,-4.84,29.4,0,0,0,-9.41,1.63,2.19,2.15515327453613
,0,0.34,0.54,-0.29,0.72,0.41,1.23,0.03,-13.42,-2.03,-0.41,0,0,0,-9.46,1.66,1.96,2.17453217506409
,0,0.34,0.54,-0.29,0.71,0.55,1.11,-0.1,-12.4,-2.08,-0.54,0,0,0,-9.48,1.66,1.85,2.18850827217102
,0,0.34,0.55,-0.29,0.71,0.75,1.16,-0.31,-10.38,-1.34,-1.9,0,0,0,-9.53,1.63,1.62,2.20570588111877
,0,0.35,0.55,-0.29,0.69,0.82,1.29,-0.31,-10.49,2.22,-3.22,0,0,0,-9.57,1.6,1.36,2.22313833236694
,0,0.35,0.56,-0.29,0.69,0.41,1.37,-0.31,-10.07,3.12,-2.51,0,0,0,-9.6,1.57,1.23,2.23792243003845
,0,0.36,0.57,-0.29,0.68,-0.46,1.42,-0.29,-9.48,3.43,-1.63,0,0,0,-9.64,1.51,0.97,2.25572776794434
,0,0.35,0.58,-0.28,0.68,-1.1,1.17,-0.19,-10.16,1.85,-0.53,0,0,0,-9.66,1.45,0.76,2.27341794967651
,0,0.35,0.59,-0.28,0.68,-0.99,1.01,-0.14,-10.21,0.69,-0.49,0,0,0,-9.67,1.43,0.68,2.28779149055481
,0,0.35,0.59,-0.27,0.67,-0.57,0.81,-0.09,-9.74,-0.36,-0.29,0,0,0,-9.68,1.41,0.54,2.30553603172302
,0,0.35,0.6,-0.27,0.67,-0.03,0.75,-0.06,-9.5,0.33,-1.01,0,0,0,-9.69,1.39,0.41,2.32359337806702
,0,0.35,0.6,-0.27,0.67,0.07,0.8,-0.04,-9.47,1.11,-0.9,0,0,0,-9.7,1.39,0.33,2.33825850486755
,0,0.35,0.61,-0.26,0.66,-0.11,0.91,-0.04,-9.92,1.9,-1.11,0,0,0,-9.7,1.38,0.16,2.3563916683197
,0,0.35,0.61,-0.26,0.66,-0.29,0.88,-0.06,-9.96,0.92,-1.53,0,0,0,-9.7,1.37,0,2.37403535842896
,0,0.35,0.62,-0.26,0.66,-0.28,0.86,-0.08,-9.88,1.59,-1.63,0,0,0,-9.71,1.36,-0.07,2.38879036903381
,0,0.35,0.62,-0.26,0.65,0,0.77,-0.07,-10.14,1.59,-1.68,0,0,0,-9.71,1.35,-0.22,2.40572261810303
,0,0.35,0.63,-0.25,0.65,0.11,0.74,-0.08,-10.19,0.96,-1.21,0,0,0,-9.7,1.33,-0.35,2.42386746406555
,0,0.35,0.63,-0.25,0.64,0.16,0.65,-0.1,-9.93,1.06,-1.48,0,0,0,-9.7,1.32,-0.42,2.43847346305847
,0,0.36,0.63,-0.25,0.64,0,0.65,-0.14,-10.01,1.42,-1.52,0,0,0,-9.7,1.3,-0.57,2.45424485206604
,0,0.36,0.64,-0.25,0.63,-0.09,0.65,-0.14,-9.72,1.7,-1.31,0,0,0,-9.69,1.28,-0.69,2.47339463233948
,0,0.36,0.64,-0.25,0.63,-0.28,0.61,-0.11,-9.73,1.46,-1.5,0,0,0,-9.69,1.27,-0.74,2.48768353462219
,0,0.36,0.65,-0.25,0.63,-0.15,0.59,-0.13,-9.28,0.49,-0.99,0,0,0,-9.68,1.25,-0.85,2.50548219680786
,0,0.36,0.65,-0.25,0.62,0.01,0.6,-0.14,-9.33,1.34,-0.94,0,0,0,-9.68,1.22,-0.97,2.52325296401978
,0,0.36,0.65,-0.25,0.62,0.08,0.65,-0.14,-9.17,1.75,-1.85,0,0,0,-9.67,1.21,-1.03,2.53804993629456
,0,0.36,0.66,-0.24,0.62,-0.06,0.71,-0.17,-9.5,1.53,-1.17,0,0,0,-9.66,1.18,-1.15,2.55614829063416
,0,0.36,0.66,-0.24,0.61,0.01,0.79,-0.18,-9.62,1.63,-1.34,0,0,0,-9.65,1.14,-1.3,2.57463383674622
,0,0.36,0.66,-0.24,0.61,-0.04,0.78,-0.19,-9.7,1.66,-1.69,0,0,0,-9.64,1.13,-1.37,2.58909630775452
,0,0.36,0.67,-0.24,0.6,-0.1,0.77,-0.19,-9.6,0.96,-2.44,0,0,0,-9.62,1.09,-1.51,2.60728430747986
,0,0.36,0.68,-0.24,0.6,-0.1,0.76,-0.2,-9.73,0.55,-2.58,0,0,0,-9.6,1.06,-1.65,2.62494921684265
,0,0.36,0.68,-0.24,0.6,-0.05,0.75,-0.2,-9.84,0.46,-2.31,0,0,0,-9.59,1.04,-1.72,2.63955211639404
,0,0.36,0.68,-0.23,0.59,0.05,0.73,-0.17,-9.76,0.6,-2.35,0,0,0,-9.57,1.01,-1.86,2.65810656547546
,0,0.36,0.69,-0.23,0.59,0.15,0.75,-0.15,-9.86,0.57,-2.15,0,0,0,-9.55,0.97,-2,2.67650747299194
,0,0.36,0.69,-0.23,0.58,0.21,0.76,-0.13,-9.96,0.67,-2.25,0,0,0,-9.53,0.96,-2.07,2.6917552947998
,0,0.36,0.69,-0.23,0.58,0.25,0.8,-0.12,-10.29,0.62,-2.34,0,0,0,-9.5,0.92,-2.22,2.7100715637207
,0,0.36,0.7,-0.23,0.57,0.17,0.84,-0.15,-9.98,0.03,-3.16,0,0,0,-9.47,0.89,-2.37,2.72856378555298
,0,0.37,0.7,-0.23,0.56,0.21,0.92,-0.17,-10.19,0.55,-2.75,0,0,0,-9.43,0.84,-2.55,2.74410963058472
,0,0.37,0.71,-0.23,0.55,0.24,0.97,-0.21,-10.28,0.34,-2.66,0,0,0,-9.38,0.79,-2.73,2.76200270652771
,0,0.37,0.71,-0.23,0.55,0.28,1.04,-0.26,-10.3,0.05,-2.28,0,0,0,-9.35,0.76,-2.83,2.78036141395569
,0,0.37,0.72,-0.23,0.54,0.43,1.09,-0.33,-10.1,0.82,-2.67,0,0,0,-9.3,0.68,-3.02,2.79577827453613
,0,0.37,0.72,-0.23,0.53,0.44,1.14,-0.36,-10.81,2.14,-1.56,0,0,0,-9.23,0.58,-3.24,2.81359553337097
,0,0.38,0.73,-0.23,0.52,0.5,1.31,-0.47,-11.39,2.43,-1.19,0,0,0,-9.19,0.52,-3.36,2.83096551895142
,0,0.38,0.74,-0.23,0.51,0.43,1.37,-0.47,-11.12,0.86,-1.23,0,0,0,-9.11,0.41,-3.6,2.84616994857788
,0,0.38,0.74,-0.24,0.5,0.54,1.48,-0.51,-11.41,0.77,-1.43,0,0,0,-9,0.27,-3.86,2.86396312713623
,0,0.38,0.75,-0.24,0.48,0.87,1.55,-0.53,-11.64,0.66,-2.07,0,0,0,-8.95,0.19,-4,2.88164067268372
,0,0.39,0.75,-0.24,0.47,1.18,1.69,-0.56,-13.56,-0.82,0.32,0,0,0,-8.81,0.01,-4.29,2.89674639701843
,0,0.39,0.76,-0.25,0.45,1.62,1.74,-0.54,-13.56,-0.1,-0.14,0,0,0,-8.66,-0.2,-4.58,2.91473269462585
,0,0.4,0.77,-0.26,0.43,1.75,1.8,-0.54,-13.19,-0.04,-0.46,0,0,0,-8.58,-0.33,-4.72,2.93163728713989
,0,0.41,0.77,-0.26,0.42,1.92,2.01,-0.63,-12.78,0.72,-2.1,0,0,0,-8.39,-0.6,-5.03,2.94692373275757
,0,0.41,0.78,-0.27,0.39,1.78,2.23,-0.83,-13.98,1.43,-2.04,0,0,0,-8.16,-0.91,-5.35,2.96659111976624
,0,0.42,0.78,-0.28,0.37,1.62,2.26,-0.86,-14.24,1.66,-1.87,0,0,0,-7.9,-1.22,-5.67,2.98280620574951
,0,0.42,0.79,-0.28,0.36,1.39,2.12,-0.82,-10.46,1.11,-6.85,0,0,0,-7.77,-1.36,-5.81,2.99793601036072
,0,0.42,0.79,-0.28,0.33,0.87,2.02,-0.75,-9.71,0.33,-7.93,0,0,0,-7.52,-1.59,-6.08,3.01689457893372
,0,0.43,0.8,-0.28,0.32,0.57,1.91,-0.66,-8.17,-0.72,-5.67,0,0,0,-7.28,-1.75,-6.33,3.03324437141418
,0,0.43,0.8,-0.28,0.31,0.39,1.41,-0.49,-8.14,-0.16,-3.62,0,0,0,-7.18,-1.81,-6.42,3.04862523078918
,0,0.43,0.81,-0.28,0.3,0.07,0.71,-0.05,-7.11,1.34,-1.17,0,0,0,-7.07,-1.84,-6.53,3.0676600933075
,0,0.43,0.81,-0.27,0.3,-0,0.33,0.13,-6.56,1.54,0,0,0,0,-7.05,-1.81,-6.56,3.08348536491394
,0,0.43,0.81,-0.27,0.3,-0.1,-0.36,0.41,-5.94,0.75,1.25,0,0,0,-7.08,-1.78,-6.53,3.09887862205505
,0,0.43,0.8,-0.28,0.31,0.08,-1.12,0.55,-5.15,-0.81,-0.62,0,0,0,-7.22,-1.71,-6.4,3.11779165267944
,0,0.43,0.79,-0.28,0.32,-0.01,-1.43,0.6,-5.21,-0.3,-1.74,0,0,0,-7.43,-1.62,-6.18,3.1335334777832
,0,0.43,0.79,-0.28,0.33,-0.04,-2.02,0.71,-5.25,-0.54,-2.28,0,0,0,-7.56,-1.56,-6.03,3.14879679679871
,0,0.43,0.78,-0.29,0.36,-0.23,-2.54,0.87,-5.5,-0.65,-1.76,0,0,0,-7.86,-1.42,-5.68,3.16885757446289
,0,0.43,0.76,-0.3,0.38,-0.29,-2.78,0.96,-6.27,0.14,-2.54,0,0,0,-8.19,-1.22,-5.24,3.18431735038757
,0,0.43,0.76,-0.3,0.4,-0.59,-3.18,1.15,-7.2,0.38,-2.64,0,0,0,-8.36,-1.1,-4.99,3.19895362854004
,0,0.42,0.74,-0.3,0.43,-0.73,-3.55,1.34,-8.32,0.1,-3.41,0,0,0,-8.7,-0.82,-4.43,3.21932888031006
,0,0.42,0.72,-0.31,0.46,-0.75,-3.68,1.41,-10.25,-0.84,-3.95,0,0,0,-9.02,-0.52,-3.8,3.23460245132446
,0,0.42,0.71,-0.31,0.48,-0.63,-3.88,1.48,-10.68,-1.08,-4.22,0,0,0,-9.16,-0.37,-3.46,3.25000166893005
,0,0.41,0.69,-0.31,0.51,-0.51,-4.07,1.5,-11.41,-1.34,-4.58,0,0,0,-9.41,-0.07,-2.74,3.26882171630859
,0,0.41,0.66,-0.32,0.55,-0.44,-4.17,1.51,-11.99,-1.03,-4.41,0,0,0,-9.6,0.22,-1.97,3.28462815284729
,0,0.41,0.64,-0.32,0.56,-0.29,-4.33,1.52,-12.31,-0.69,-4.58,0,0,0,-9.67,0.37,-1.56,3.29960942268372
,0,0.4,0.61,-0.33,0.59,-0.25,-4.36,1.64,-12.68,0.45,-5.72,0,0,0,-9.75,0.68,-0.74,3.31939339637756
,0,0.39,0.58,-0.33,0.63,-0.39,-4.32,1.67,-12.84,0.89,-6.3,0,0,0,-9.75,1,0.07,3.33500480651855
,0,0.39,0.57,-0.33,0.64,-0.87,-4.13,1.66,-12.89,0.83,-6.32,0,0,0,-9.72,1.15,0.47,3.35032558441162
,0,0.38,0.54,-0.33,0.67,-1.18,-3.74,1.66,-12.54,0.47,-7.31,0,0,0,-9.62,1.44,1.22,3.37025141716003
,0,0.37,0.52,-0.33,0.7,-1.17,-3.08,1.6,-10.84,-1.3,-9.79,0,0,0,-9.47,1.71,1.86,3.38487458229065
,0,0.36,0.51,-0.32,0.71,-1.09,-2.66,1.47,-10.14,-1.77,-9.62,0,0,0,-9.39,1.82,2.12,3.40100955963135
,0,0.36,0.49,-0.32,0.73,-0.7,-1.8,1.11,-8.2,-2.52,-9.27,0,0,0,-9.26,2,2.52,3.42064785957336
,0,0.36,0.48,-0.32,0.73,-0.15,-0.82,0.66,-6.74,-0.96,-10.01,0,0,0,-9.17,2.12,2.72,3.43613314628601
,0,0.36,0.48,-0.31,0.74,-0.02,-0.28,0.44,-5.85,-0.28,-10.05,0,0,0,-9.16,2.16,2.75,3.45151710510254
,0,0.36,0.49,-0.31,0.73,0.01,0.87,-0.03,-5.87,-0.01,-9.42,0,0,0,-9.18,2.18,2.64,3.47049808502197
,0,0.36,0.5,-0.31,0.73,-0.9,1.84,-0.53,-11.11,2.95,2.87,0,0,0,-9.28,2.08,2.37,3.48562622070312
,0,0.36,0.52,-0.3,0.72,-1.09,1.93,-0.58,-17.72,-4.9,33.87,0,0,0,-9.33,2.01,2.22,3.50181984901428
,0,0.36,0.52,-0.3,0.72,0.07,1.4,-0.14,-13.57,-2.22,3.18,0,0,0,-9.4,1.97,1.96,3.52098798751831
,0,0.36,0.53,-0.3,0.71,-0.39,1.42,-0.58,-11.01,-1.25,-1.18,0,0,0,-9.47,1.88,1.7,3.53580212593079
,0,0.36,0.54,-0.29,0.7,-0.17,1.41,-0.51,-9.73,1.95,-0.47,0,0,0,-9.5,1.83,1.58,3.55199694633484
,0,0.36,0.56,-0.29,0.69,-0.41,1.47,-0.43,-9.96,3.31,-3.49,0,0,0,-9.55,1.74,1.31,3.57202935218811
,0,0.35,0.57,-0.28,0.69,-1.38,1.65,-0.43,-9.57,5.61,-0.48,0,0,0,-9.61,1.63,1.05,3.58674764633179
,0,0.34,0.58,-0.27,0.69,-1.67,1.55,-0.3,-8.89,3.54,-3.07,0,0,0,-9.64,1.55,0.83,3.60320043563843
,0,0.33,0.6,-0.26,0.68,-1.94,1.34,-0.21,-10.76,-0.52,0.06,0,0,0,-9.65,1.52,0.73,3.62247180938721
,0,0.33,0.6,-0.25,0.68,-0.8,0.87,-0.15,-11.15,-1.46,-0.49,0,0,0,-9.67,1.47,0.58,3.6366274356842
,0,0.33,0.61,-0.25,0.68,-0.4,0.81,-0.07,-10.46,-1.79,-1.13,0,0,0,-9.68,1.46,0.43,3.65329074859619
,0,0.34,0.61,-0.25,0.67,0.39,0.86,-0.02,-8.79,-0.16,-1.35,0,0,0,-9.69,1.46,0.34,3.67225813865662
,0,0.34,0.61,-0.25,0.67,0.24,1.14,-0.06,-9.67,2.14,-1.37,0,0,0,-9.69,1.45,0.13,3.68903565406799
,0,0.34,0.62,-0.24,0.66,-0.08,1.21,-0.11,-10.41,2.79,-0.25,0,0,0,-9.69,1.44,-0.07,3.70349836349487
,0,0.34,0.63,-0.24,0.66,-0.43,1.02,-0.04,-9.99,1.46,-1.88,0,0,0,-9.69,1.44,-0.16,3.72197008132935
,0,0.34,0.63,-0.24,0.65,-0.1,0.92,-0.08,-10.09,1.36,-1.45,0,0,0,-9.69,1.42,-0.33,3.73684072494507
,0,0.34,0.64,-0.24,0.65,0.11,0.85,-0.06,-10.09,1.89,-1.69,0,0,0,-9.69,1.41,-0.49,3.75306344032288
,0,0.35,0.64,-0.23,0.64,0.21,0.72,-0.04,-10.37,0.81,-1.49,0,0,0,-9.68,1.41,-0.56,3.77226996421814
,0,0.35,0.64,-0.23,0.64,-0.01,0.66,-0.11,-10.09,0.7,-1.92,0,0,0,-9.68,1.39,-0.69,3.78673148155212
,0,0.35,0.65,-0.23,0.64,-0.12,0.68,-0.1,-10.14,1.46,-1.79,0,0,0,-9.67,1.38,-0.81,3.80293941497803
,0,0.35,0.65,-0.23,0.63,-0.28,0.65,-0.05,-9.49,1.51,-2.78,0,0,0,-9.67,1.37,-0.87,3.82223749160767
,0,0.35,0.66,-0.23,0.63,-0.21,0.63,-0.06,-9.56,0.61,-2.02,0,0,0,-9.66,1.37,-0.98,3.83681321144104
,0,0.35,0.66,-0.22,0.63,-0.04,0.59,-0.06,-9.42,0.48,-1.94,0,0,0,-9.65,1.36,-1.09,3.85288000106812
,0,0.35,0.66,-0.22,0.62,0.26,0.58,-0.05,-9.5,0.68,-1.66,0,0,0,-9.64,1.35,-1.14,3.87202167510986
,0,0.35,0.66,-0.22,0.62,0.3,0.54,-0.03,-9.24,1.63,-1.91,0,0,0,-9.63,1.33,-1.26,3.88665676116943
,0,0.35,0.67,-0.22,0.62,0.21,0.53,-0.04,-9.34,0.98,-2.05,0,0,0,-9.61,1.32,-1.36,3.90291261672974
,0,0.35,0.67,-0.22,0.61,0.21,0.5,-0.03,-9.85,1.43,-1.63,0,0,0,-9.61,1.32,-1.41,3.92210745811462
,0,0.36,0.67,-0.22,0.61,0.22,0.47,-0.02,-9.88,0.69,-2.07,0,0,0,-9.6,1.31,-1.51,3.93692445755005
,0,0.36,0.67,-0.22,0.61,0.22,0.44,-0.04,-9.77,0.57,-2.16,0,0,0,-9.58,1.29,-1.59,3.95310044288635
,0,0.36,0.68,-0.23,0.6,0.3,0.38,-0.09,-10.02,-0.1,-2.01,0,0,0,-9.58,1.28,-1.63,3.97209644317627
,0,0.36,0.68,-0.23,0.6,0.59,0.55,-0.1,-9.93,2.23,-1.32,0,0,0,-9.57,1.24,-1.73,3.98890781402588
,0,0.36,0.68,-0.23,0.59,0.23,0.63,-0.09,-9.35,1.57,-2.07,0,0,0,-9.55,1.22,-1.85,4.00712132453918
,0,0.37,0.68,-0.23,0.59,0.26,0.67,-0.11,-9.12,1.37,-2.91,0,0,0,-9.52,1.18,-1.99,4.02382636070251
,0,0.37,0.69,-0.23,0.59,0.39,0.75,-0.14,-9.75,1.14,-2.45,0,0,0,-9.51,1.16,-2.06,4.03854036331177
,0,0.37,0.69,-0.23,0.58,0.43,0.76,-0.15,-10.25,0.74,-2.24,0,0,0,-9.48,1.12,-2.21,4.05571913719177
,0,0.38,0.69,-0.23,0.57,0.48,0.77,-0.16,-10.53,0.64,-1.97,0,0,0,-9.45,1.06,-2.36,4.07291626930237
,0,0.38,0.69,-0.23,0.57,0.5,0.79,-0.17,-10.44,0.9,-2.35,0,0,0,-9.43,1.04,-2.44,4.08781480789185
,0,0.38,0.7,-0.23,0.56,0.52,0.85,-0.22,-10.37,1.16,-2.4,0,0,0,-9.4,0.97,-2.61,4.10392165184021
,0,0.38,0.7,-0.23,0.55,0.48,0.92,-0.28,-10.19,1.13,-2.29,0,0,0,-9.38,0.93,-2.69,4.12317657470703
,0,0.38,0.71,-0.24,0.55,0.49,0.95,-0.31,-10.19,0.89,-2.4,0,0,0,-9.33,0.85,-2.88,4.13749146461487
,0,0.39,0.71,-0.24,0.54,0.48,1.05,-0.41,-10.34,1.36,-2.39,0,0,0,-9.28,0.75,-3.07,4.15317034721375
,0,0.39,0.72,-0.24,0.52,0.6,1.16,-0.46,-11.16,2.02,-2.07,0,0,0,-9.24,0.69,-3.18,4.17280197143555
,0,0.39,0.72,-0.24,0.52,0.53,1.2,-0.47,-11.33,0.48,-0.41,0,0,0,-9.17,0.57,-3.4,4.18753480911255
,0,0.39,0.73,-0.24,0.5,0.83,1.37,-0.57,-11.43,0.59,-0.61,0,0,0,-9.09,0.41,-3.65,4.20301556587219
,0,0.4,0.74,-0.25,0.49,0.92,1.4,-0.62,-12.33,0.52,-0.4,0,0,0,-9.04,0.32,-3.77,4.22253060340881
,0,0.4,0.74,-0.25,0.48,1.08,1.63,-0.67,-13.3,-1,0.48,0,0,0,-8.92,0.13,-4.05,4.23722219467163
,0,0.41,0.75,-0.26,0.46,1.62,1.75,-0.7,-13.6,-0.99,0.37,0,0,0,-8.85,0.01,-4.2,4.25292110443115
,0,0.41,0.75,-0.27,0.44,1.81,1.86,-0.74,-13.54,0.21,0.12,0,0,0,-8.7,-0.25,-4.51,4.27241849899292
,0,0.42,0.76,-0.27,0.42,1.99,2.02,-0.76,-12.19,1.2,-4.07,0,0,0,-8.51,-0.56,-4.82,4.28708124160767
,0,0.42,0.76,-0.28,0.4,1.98,2.16,-0.77,-12.97,1.18,-4.01,0,0,0,-8.4,-0.71,-4.99,4.30315613746643
,0,0.43,0.77,-0.29,0.37,1.61,2.33,-0.97,-12.54,2.5,-2.88,0,0,0,-8.16,-1.03,-5.33,4.32272410392761
,0,0.43,0.78,-0.29,0.36,1.37,2.22,-1.03,-10.53,0.56,-7.56,0,0,0,-7.89,-1.34,-5.65,4.33757710456848
,0,0.43,0.79,-0.29,0.34,1.17,2.19,-1.04,-9.96,0.62,-7.89,0,0,0,-7.76,-1.48,-5.8,4.35339069366455
,0,0.43,0.79,-0.28,0.32,0.27,2.11,-0.89,-9.84,0.31,-5.74,0,0,0,-7.49,-1.68,-6.1,4.37275791168213
,0,0.43,0.8,-0.28,0.31,-0.11,1.68,-0.66,-8.79,1.15,1.07,0,0,0,-7.24,-1.78,-6.36,4.38736486434937
,0,0.43,0.8,-0.28,0.3,-0.28,1.26,-0.45,-8.16,1.4,0.86,0,0,0,-7.15,-1.8,-6.45,4.40297293663025
,0,0.43,0.8,-0.27,0.3,-0.17,0.43,-0.02,-7.14,1.97,0.64,0,0,0,-7.07,-1.79,-6.54,4.42296743392944
,0,0.43,0.8,-0.27,0.3,-0.14,-0.32,0.26,-6.15,-0.2,-0.51,0,0,0,-7.09,-1.75,-6.53,4.43828535079956
,0,0.43,0.8,-0.28,0.31,-0.08,-0.72,0.37,-6.02,-0.48,-1.58,0,0,0,-7.14,-1.72,-6.48,4.45338606834412
,0,0.43,0.79,-0.28,0.32,0.12,-1.34,0.48,-6.11,-0.57,-1.13,0,0,0,-7.3,-1.67,-6.32,4.47324800491333
,0,0.43,0.79,-0.29,0.33,0.19,-1.92,0.61,-5.96,-0.46,-1.41,0,0,0,-7.53,-1.61,-6.06,4.48796486854553
,0,0.43,0.78,-0.29,0.35,0.13,-2.21,0.68,-6.4,0.1,-1.9,0,0,0,-7.67,-1.56,-5.89,4.50386357307434
,0,0.43,0.76,-0.3,0.37,-0.01,-2.71,0.86,-6.94,0.64,-2.55,0,0,0,-7.98,-1.44,-5.5,4.52355813980103
,0,0.43,0.76,-0.31,0.39,-0.28,-3.09,1.1,-7.99,0.79,-2.89,0,0,0,-8.32,-1.26,-5.03,4.53797769546509
,0,0.43,0.74,-0.31,0.42,-0.42,-3.26,1.22,-8.51,0.35,-2.84,0,0,0,-8.65,-1.01,-4.49,4.55335426330566
,0,0.43,0.72,-0.32,0.45,-0.46,-3.53,1.45,-9.97,-0.27,-3.73,0,0,0,-8.81,-0.86,-4.19,4.57318735122681
,0,0.42,0.71,-0.32,0.47,-0.42,-3.76,1.6,-10.99,-0.81,-4.02,0,0,0,-9.11,-0.56,-3.56,4.58784818649292
,0,0.42,0.68,-0.33,0.5,-0.4,-3.87,1.62,-11.53,-1.03,-4.13,0,0,0,-9.37,-0.24,-2.86,4.60359692573547
,0,0.42,0.66,-0.33,0.53,-0.34,-4.08,1.64,-12.1,-0.57,-4.28,0,0,0,-9.57,0.07,-2.1,4.62334895133972
,0,0.42,0.64,-0.34,0.55,-0.31,-4.26,1.69,-12.37,-0.03,-6.08,0,0,0,-9.65,0.23,-1.7,4.63808345794678
,0,0.41,0.61,-0.34,0.58,-0.33,-4.31,1.73,-12.24,-0.04,-6.44,0,0,0,-9.74,0.57,-0.89,4.65391063690186
,0,0.4,0.59,-0.34,0.61,-0.55,-4.23,1.78,-12.49,0.9,-6,0,0,0,-9.76,0.91,-0.09,4.67373657226562
,0,0.4,0.57,-0.34,0.63,-0.96,-4.04,1.83,-12.43,1.51,-6.34,0,0,0,-9.74,1.08,0.29,4.68809247016907
,0,0.39,0.54,-0.34,0.66,-1.17,-3.92,1.84,-12.2,0.98,-7.02,0,0,0,-9.64,1.41,1.04,4.70417809486389
,0,0.38,0.52,-0.33,0.69,-1.44,-3.52,1.76,-11.2,-0.75,-9.56,0,0,0,-9.58,1.56,1.39,4.72348594665527
,0,0.37,0.51,-0.33,0.7,-1.37,-2.81,1.55,-9.05,-2.92,-10.75,0,0,0,-9.42,1.81,1.99,4.73877620697021
,0,0.36,0.5,-0.32,0.72,-1.28,-2.35,1.4,-7.82,-3.5,-11.05,0,0,0,-9.29,1.99,2.42,4.75466585159302
,0,0.36,0.49,-0.31,0.73,-1.06,-1.33,0.92,-6.43,-3.33,-10.48,0,0,0,-9.2,2.08,2.65,4.77374243736267
,0,0.35,0.49,-0.31,0.73,-0.75,-0.23,0.4,-5.89,-1.6,-10.61,0,0,0,-9.19,2.1,2.68,4.78833675384521
,0,0.35,0.49,-0.31,0.73,-0.71,0.32,0.14,-6.13,-1.28,-10.78,0,0,0,-9.22,2.06,2.61,4.80439138412476
,0,0.34,0.51,-0.3,0.73,-1,1.47,-0.35,-10.67,6.3,-1.78,0,0,0,-9.32,1.9,2.35,4.82371830940247
,0,0.34,0.52,-0.29,0.73,-1.92,2.02,-0.66,-17.95,-4.21,19.62,0,0,0,-9.38,1.8,2.2,4.83889126777649
,0,0.34,0.53,-0.29,0.72,-0.42,1.48,-0.16,-13.55,-3.55,0.69,0,0,0,-9.44,1.76,1.96,4.8548686504364
,0,0.34,0.55,-0.28,0.71,-0.24,1.35,-0.34,-11.92,-1.99,-1.12,0,0,0,-9.5,1.68,1.72,4.87399435043335
,0,0.34,0.55,-0.29,0.71,0.38,1.41,-0.47,-10.44,0.91,0.39,0,0,0,-9.53,1.64,1.58,4.88792014122009
,0,0.35,0.56,-0.29,0.7,0.58,1.45,-0.4,-9.97,1.11,-1.19,0,0,0,-9.58,1.6,1.29,4.90352654457092
,0,0.35,0.57,-0.28,0.69,0.22,1.42,-0.28,-9.5,4.46,-4.03,0,0,0,-9.62,1.53,1.04,4.92368602752686
,0,0.35,0.58,-0.28,0.69,-1,1.36,-0.27,-10.03,1.9,-2.74,0,0,0,-9.64,1.5,0.92,4.93810534477234
,0,0.34,0.59,-0.27,0.68,-1.15,1.28,-0.13,-10.63,0.24,-1.7,0,0,0,-9.66,1.46,0.73,4.95342063903809
,0,0.34,0.6,-0.26,0.68,-1.12,1.02,-0.08,-11.02,-0.53,0.85,0,0,0,-9.68,1.44,0.58,4.9735381603241
,0,0.34,0.6,-0.26,0.68,-0.31,0.72,0.1,-9.79,-1.04,-0.71,0,0,0,-9.68,1.45,0.52,4.98830008506775
,0,0.34,0.6,-0.26,0.67,0.06,0.7,0.13,-9.51,-0.01,-0.47,0,0,0,-9.68,1.47,0.38,5.00399780273438
,0,0.35,0.61,-0.26,0.67,0.66,0.7,0.04,-9.29,0.99,-1.65,0,0,0,-9.69,1.48,0.23,5.0241367816925
,0,0.35,0.61,-0.26,0.66,0.36,0.81,0.04,-10.11,1.94,-1.18,0,0,0,-9.69,1.48,0.15,5.03845047950745
,0,0.35,0.61,-0.26,0.66,0.26,0.81,0.04,-10.28,1.59,-1.3,0,0,0,-9.69,1.49,0,5.05482530593872
,0,0.36,0.62,-0.25,0.65,0.08,0.79,0.03,-10.15,1.39,-1.42,0,0,0,-9.68,1.5,-0.15,5.07403349876404
,0,0.36,0.62,-0.25,0.65,0.34,0.73,0.02,-10.1,2.09,-1.2,0,0,0,-9.68,1.5,-0.22,5.08808755874634
,0,0.36,0.62,-0.25,0.65,0.39,0.66,0.01,-10.09,1.56,-1.2,0,0,0,-9.68,1.5,-0.36,5.10415482521057
,0,0.37,0.63,-0.25,0.64,0.45,0.59,-0.05,-10.15,1.74,-1.11,0,0,0,-9.68,1.49,-0.42,5.12379050254822
,0,0.37,0.63,-0.25,0.64,0.27,0.59,-0.1,-9.94,1.79,-1.32,0,0,0,-9.67,1.47,-0.55,5.13857078552246
,0,0.37,0.63,-0.25,0.63,0.11,0.6,-0.1,-9.82,2.06,-1.44,0,0,0,-9.67,1.46,-0.68,5.15426278114319
,0,0.37,0.64,-0.25,0.63,-0.06,0.62,-0.11,-9.59,1.31,-1.29,0,0,0,-9.66,1.45,-0.74,5.17423748970032
,0,0.37,0.64,-0.25,0.63,0.1,0.61,-0.13,-9.35,1.14,-1.82,0,0,0,-9.66,1.43,-0.85,5.1881365776062
,0,0.37,0.64,-0.25,0.62,0.21,0.6,-0.14,-9.51,1.14,-1.6,0,0,0,-9.66,1.41,-0.91,5.20354461669922
,0,0.38,0.64,-0.25,0.62,0.41,0.58,-0.14,-9.37,1.25,-1.67,0,0,0,-9.64,1.36,-1.09,5.22450089454651
,0,0.38,0.65,-0.25,0.61,0.4,0.58,-0.15,-9.37,1.8,-1.64,0,0,0,-9.64,1.34,-1.15,5.23983597755432
,0,0.38,0.65,-0.25,0.61,0.34,0.59,-0.16,-9.38,1.72,-1.46,0,0,0,-9.63,1.3,-1.27,5.25499439239502
,0,0.38,0.65,-0.25,0.6,0.18,0.59,-0.16,-9.63,1.54,-1.67,0,0,0,-9.62,1.27,-1.38,5.27430129051208
,0,0.38,0.65,-0.25,0.6,0.07,0.6,-0.18,-9.73,1.3,-1.42,0,0,0,-9.61,1.25,-1.44,5.28905057907104
,0,0.38,0.66,-0.25,0.6,0.07,0.6,-0.19,-9.48,1.51,-2.1,0,0,0,-9.6,1.21,-1.55,5.30513715744019
,0,0.38,0.66,-0.25,0.59,0.03,0.61,-0.21,-9.67,1.26,-1.85,0,0,0,-9.59,1.17,-1.67,5.32480549812317
,0,0.38,0.67,-0.25,0.59,0.06,0.65,-0.22,-9.43,1.33,-2.7,0,0,0,-9.58,1.15,-1.73,5.33908629417419
,0,0.38,0.67,-0.25,0.59,0.05,0.67,-0.23,-9.5,0.92,-2.59,0,0,0,-9.56,1.1,-1.86,5.35442328453064
,0,0.38,0.67,-0.25,0.58,0.18,0.78,-0.25,-9.76,1.15,-1.56,0,0,0,-9.53,1.05,-2.01,5.3745105266571
,0,0.38,0.68,-0.25,0.58,0.23,0.8,-0.24,-9.85,0.93,-2.39,0,0,0,-9.52,1.02,-2.09,5.38923287391663
,0,0.39,0.68,-0.25,0.57,0.19,0.83,-0.25,-9.76,0.68,-2.05,0,0,0,-9.49,0.97,-2.25,5.40415859222412
,0,0.39,0.69,-0.25,0.56,0.28,0.86,-0.26,-10.18,0.89,-2.57,0,0,0,-9.46,0.91,-2.41,5.42374897003174
,0,0.39,0.69,-0.25,0.56,0.3,0.87,-0.24,-10.42,0.32,-2.54,0,0,0,-9.44,0.88,-2.49,5.43845343589783
,0,0.39,0.69,-0.25,0.55,0.3,0.84,-0.24,-10.37,0.29,-2.51,0,0,0,-9.42,0.85,-2.57,5.45416307449341
,0,0.39,0.7,-0.25,0.54,0.35,0.87,-0.28,-10.18,0.46,-2.82,0,0,0,-9.38,0.78,-2.74,5.47419309616089
,0,0.39,0.7,-0.25,0.54,0.41,0.97,-0.35,-10.15,0.46,-2.34,0,0,0,-9.33,0.7,-2.91,5.48837327957153
,0,0.4,0.71,-0.25,0.53,0.42,1.02,-0.4,-9.89,1,-2.81,0,0,0,-9.3,0.65,-3.01,5.50375437736511
,0,0.4,0.72,-0.25,0.52,0.53,1.22,-0.52,-11.04,1.59,-1.42,0,0,0,-9.24,0.53,-3.22,5.52412462234497
,0,0.4,0.72,-0.25,0.51,0.57,1.33,-0.56,-11.42,1.48,0.01,0,0,0,-9.16,0.4,-3.46,5.53849720954895
,0,0.4,0.73,-0.26,0.49,0.69,1.42,-0.62,-11.85,1.5,-0.64,0,0,0,-9.12,0.32,-3.59,5.5541250705719
,0,0.41,0.73,-0.26,0.48,0.86,1.6,-0.71,-13.27,1.42,-0.12,0,0,0,-9.01,0.14,-3.86,5.57389187812805
,0,0.41,0.74,-0.26,0.47,0.97,1.82,-0.78,-14.52,-0.09,0.67,0,0,0,-8.87,-0.06,-4.17,5.58845615386963
,0,0.41,0.75,-0.27,0.45,1.18,1.92,-0.81,-14.81,0.34,0.57,0,0,0,-8.79,-0.17,-4.33,5.60430407524109
,0,0.42,0.76,-0.27,0.42,1.4,2.08,-0.89,-13.71,2.18,-1.29,0,0,0,-8.61,-0.44,-4.67,5.62403416633606
,0,0.42,0.76,-0.27,0.41,1.44,2.34,-0.85,-13.57,2.5,-4.83,0,0,0,-8.38,-0.72,-5.02,5.63847136497498
,0,0.42,0.77,-0.28,0.38,1.24,2.51,-0.92,-14.07,1.07,-2.36,0,0,0,-8.25,-0.85,-5.22,5.65406966209412
,0,0.43,0.78,-0.28,0.36,0.99,2.5,-0.92,-12.55,1.41,-2.24,0,0,0,-7.97,-1.1,-5.59,5.67419910430908
,0,0.43,0.79,-0.28,0.35,1.14,2.23,-0.88,-9.68,-0.83,-8.05,0,0,0,-7.69,-1.36,-5.92,5.68896889686584
,0,0.43,0.79,-0.28,0.33,1.07,2.15,-0.81,-9.27,-0.8,-7.43,0,0,0,-7.42,-1.58,-6.2,5.70457649230957
,0,0.43,0.8,-0.28,0.31,0.46,1.95,-0.65,-8.83,-0.86,-4.44,0,0,0,-7.29,-1.66,-6.33,5.72436618804932
,0,0.43,0.8,-0.27,0.3,0.13,1.18,-0.38,-7.61,0.82,1.21,0,0,0,-7.1,-1.75,-6.52,5.73882722854614
,0,0.43,0.8,-0.27,0.3,0.11,0.73,-0.13,-6.57,1.9,0.48,0,0,0,-7.03,-1.76,-6.6,5.75423884391785
,0,0.44,0.8,-0.27,0.3,-0.1,0,0.18,-6.78,2.58,2.35,0,0,0,-7.03,-1.75,-6.6,5.77405166625977
,0,0.44,0.8,-0.27,0.31,-0.24,-0.88,0.5,-5.54,-0.65,-2.23,0,0,0,-7.13,-1.66,-6.51,5.78914380073547
,0,0.44,0.79,-0.28,0.32,-0.22,-1.24,0.56,-5.66,-0.63,-2.04,0,0,0,-7.22,-1.61,-6.43,5.80431628227234
,0,0.44,0.79,-0.28,0.34,-0.2,-1.81,0.62,-6.05,-0.48,-1.52,0,0,0,-7.44,-1.5,-6.2,5.8237316608429
,0,0.44,0.78,-0.28,0.35,-0.19,-2.4,0.78,-5.89,-0.47,-1.95,0,0,0,-7.73,-1.37,-5.87,5.83861374855042
,0,0.44,0.77,-0.29,0.37,-0.25,-2.67,0.86,-6.12,0.08,-2.28,0,0,0,-7.89,-1.29,-5.67,5.85391616821289
,0,0.43,0.75,-0.3,0.4,-0.62,-3.16,0.99,-7.22,1.15,-2.97,0,0,0,-8.23,-1.09,-5.21,5.87407970428467
,0,0.43,0.74,-0.3,0.42,-0.82,-3.52,1.2,-8.17,0.37,-3.33,0,0,0,-8.58,-0.83,-4.66,5.8886661529541
,0,0.42,0.73,-0.3,0.45,-0.86,-3.67,1.29,-9.39,-0.5,-3.69,0,0,0,-8.75,-0.68,-4.36,5.90374636650085
,0,0.42,0.7,-0.31,0.48,-0.66,-3.87,1.43,-10.45,-1.17,-3.91,0,0,0,-9.06,-0.38,-3.71,5.92336082458496
,0,0.42,0.69,-0.31,0.5,-0.36,-4.07,1.53,-11.63,-1.61,-4.27,0,0,0,-9.33,-0.09,-3,5.93823313713074
,0,0.41,0.66,-0.32,0.53,-0.25,-4.19,1.55,-11.88,-1.43,-4.56,0,0,0,-9.44,0.05,-2.62,5.95402503013611
,0,0.41,0.65,-0.32,0.55,-0.17,-4.33,1.58,-12.31,-0.36,-5.45,0,0,0,-9.62,0.35,-1.82,5.97168636322021
,0,0.41,0.62,-0.33,0.58,-0.3,-4.32,1.64,-12.33,-0.15,-6.09,0,0,0,-9.73,0.66,-1.01,5.98750114440918
,0,0.4,0.61,-0.33,0.6,-0.42,-4.29,1.66,-12.27,0.37,-6.24,0,0,0,-9.75,0.82,-0.6,6.00235962867737
,0,0.4,0.58,-0.33,0.63,-0.76,-4.11,1.65,-12.67,1.02,-6.11,0,0,0,-9.73,1.14,0.19,6.01839423179626
,0,0.39,0.55,-0.33,0.66,-0.99,-3.98,1.63,-12.29,0.14,-6.85,0,0,0,-9.65,1.43,0.95,6.03654527664185
,0,0.38,0.54,-0.33,0.68,-1.37,-3.63,1.58,-11.87,0.1,-7.62,0,0,0,-9.59,1.56,1.31,6.05187559127808
,0,0.37,0.51,-0.32,0.7,-1.31,-3.04,1.48,-9.75,-1.34,-10.2,0,0,0,-9.43,1.8,1.95,6.0677273273468
,0,0.36,0.5,-0.32,0.72,-1.19,-2.67,1.41,-7.83,-2.82,-11.1,0,0,0,-9.28,1.99,2.43,6.08652424812317
,0,0.36,0.49,-0.32,0.73,-0.75,-1.76,1.1,-7.21,-3.38,-10.85,0,0,0,-9.22,2.08,2.6,6.10137248039246
,0,0.35,0.48,-0.31,0.74,-0.23,-0.71,0.61,-6.13,-1.64,-10.23,0,0,0,-9.14,2.19,2.79,6.11744022369385
,0,0.36,0.48,-0.31,0.74,-0.01,-0.18,0.38,-5.99,-0.8,-9.73,0,0,0,-9.13,2.23,2.77,6.13697290420532
,0,0.36,0.48,-0.31,0.74,0.02,0.97,-0.16,-7.27,1.25,-9.6,0,0,0,-9.16,2.22,2.69,6.15120577812195
,0,0.36,0.5,-0.3,0.73,-1.01,1.91,-0.63,-14.48,5.16,13.33,0,0,0,-9.27,2.1,2.41,6.16737699508667
,0,0.36,0.51,-0.3,0.72,-0.66,1.77,-0.4,-14.11,-3.32,-0.25,0,0,0,-9.34,2.05,2.14,6.18700075149536
,0,0.36,0.52,-0.3,0.72,0.26,1.19,-0.13,-13.28,-0.61,1.56,0,0,0,-9.37,2.04,2.02,6.20137190818787
,0,0.36,0.53,-0.3,0.71,0.33,1.38,-0.42,-10.46,-1.54,-1.76,0,0,0,-9.43,1.98,1.77,6.21746015548706
,0,0.37,0.54,-0.3,0.7,0.53,1.39,-0.46,-10.78,1.68,-0.48,0,0,0,-9.5,1.92,1.48,6.23631620407104
,0,0.37,0.54,-0.3,0.69,0.53,1.49,-0.35,-9.52,2.61,-3.87,0,0,0,-9.52,1.89,1.34,6.25073981285095
,0,0.37,0.55,-0.29,0.68,-0.31,1.4,-0.33,-9.62,3.78,-3.56,0,0,0,-9.57,1.83,1.07,6.26745223999023
,0,0.37,0.56,-0.29,0.68,-0.81,1.34,-0.32,-10.38,0.96,-1.76,0,0,0,-9.6,1.76,0.86,6.28674459457397
,0,0.37,0.57,-0.28,0.68,-1.05,1.16,-0.19,-10.69,0.31,-0.54,0,0,0,-9.61,1.74,0.77,6.301509141922
,0,0.37,0.58,-0.28,0.67,-0.37,0.82,-0.1,-9.65,0.08,-0.64,0,0,0,-9.63,1.71,0.62,6.31756210327148
,0,0.37,0.58,-0.28,0.67,-0.12,0.75,-0.04,-9.21,0.22,-0.7,0,0,0,-9.64,1.7,0.48,6.33609175682068
,0,0.37,0.58,-0.28,0.67,0.45,0.79,-0.07,-9.25,0.77,-0.65,0,0,0,-9.64,1.7,0.4,6.35074424743652
,0,0.38,0.59,-0.28,0.66,0.59,0.87,-0.08,-9.9,1.79,-0.96,0,0,0,-9.65,1.68,0.22,6.36838126182556
,0,0.38,0.59,-0.28,0.65,0.46,0.87,-0.09,-10.2,1.66,-1.27,0,0,0,-9.66,1.67,0.04,6.38698410987854
,0,0.38,0.6,-0.28,0.65,0.41,0.87,-0.1,-10.05,2.25,-1.25,0,0,0,-9.66,1.66,-0.04,6.40117406845093
,0,0.39,0.6,-0.28,0.64,0.4,0.81,-0.11,-10.16,2.42,-1.7,0,0,0,-9.66,1.64,-0.2,6.41753673553467
,0,0.39,0.6,-0.28,0.64,0.33,0.76,-0.09,-10.14,1.44,-1.98,0,0,0,-9.66,1.62,-0.35,6.43635702133179
,0,0.39,0.61,-0.28,0.63,0.29,0.64,-0.09,-10.32,1.41,-1.21,0,0,0,-9.66,1.61,-0.42,6.45110750198364
,0,0.4,0.61,-0.28,0.63,0.19,0.54,-0.09,-10.11,1.67,-1.18,0,0,0,-9.66,1.59,-0.53,6.46719694137573
,0,0.4,0.61,-0.27,0.63,0.09,0.53,-0.09,-9.82,1.62,-0.82,0,0,0,-9.65,1.57,-0.63,6.48679399490356
,0,0.4,0.61,-0.27,0.63,-0.04,0.51,-0.09,-9.73,1.65,-1.24,0,0,0,-9.65,1.57,-0.67,6.50142168998718
,0,0.4,0.62,-0.27,0.62,-0.03,0.54,-0.12,-9.57,1.58,-1.07,0,0,0,-9.65,1.55,-0.77,6.51780676841736
,0,0.4,0.62,-0.27,0.62,0.05,0.56,-0.14,-9.15,1.58,-1.14,0,0,0,-9.64,1.52,-0.88,6.53656506538391
,0,0.4,0.62,-0.27,0.61,0.25,0.63,-0.16,-8.94,2.07,-1.46,0,0,0,-9.64,1.5,-0.95,6.55147099494934
,0,0.4,0.63,-0.27,0.61,0.22,0.71,-0.2,-9.05,2.52,-1.55,0,0,0,-9.63,1.46,-1.08,6.56841897964478
,0,0.4,0.63,-0.27,0.6,0.1,0.73,-0.21,-8.93,1.71,-2.04,0,0,0,-9.62,1.42,-1.22,6.58730888366699
,0,0.4,0.64,-0.27,0.6,-0.11,0.76,-0.26,-9.3,1.31,-1.34,0,0,0,-9.61,1.39,-1.29,6.60157322883606
,0,0.4,0.64,-0.27,0.6,-0.06,0.77,-0.26,-9.4,1.23,-1.78,0,0,0,-9.6,1.35,-1.43,6.61828398704529
,0,0.4,0.65,-0.26,0.59,-0.09,0.77,-0.26,-9.78,1.02,-1.76,0,0,0,-9.59,1.3,-1.57,6.63727855682373
,0,0.4,0.65,-0.26,0.59,-0.08,0.8,-0.3,-9.74,1.17,-1.89,0,0,0,-9.58,1.27,-1.65,6.65189862251282
,0,0.4,0.66,-0.26,0.58,-0.09,0.83,-0.31,-9.56,0.88,-2.18,0,0,0,-9.56,1.22,-1.8,6.66883826255798
,0,0.4,0.66,-0.26,0.58,-0.07,0.87,-0.3,-9.51,0.82,-2.37,0,0,0,-9.53,1.16,-1.96,6.68753147125244
,0,0.4,0.67,-0.26,0.57,0.05,0.9,-0.31,-9.72,0.72,-2.52,0,0,0,-9.52,1.13,-2.04,6.70190978050232
,0,0.4,0.67,-0.26,0.57,0.07,0.9,-0.32,-9.9,0.19,-2.76,0,0,0,-9.49,1.07,-2.21,6.71885919570923
,0,0.4,0.68,-0.26,0.56,0.11,0.91,-0.33,-10.38,0.39,-2.34,0,0,0,-9.45,1,-2.38,6.73737835884094
,0,0.4,0.68,-0.26,0.56,0.21,0.95,-0.34,-10.09,0.88,-2.93,0,0,0,-9.43,0.97,-2.47,6.75275421142578
,0,0.41,0.69,-0.26,0.55,0.24,0.99,-0.34,-10.73,0.59,-1.92,0,0,0,-9.39,0.89,-2.65,6.76950573921204
,0,0.41,0.69,-0.26,0.54,0.25,0.98,-0.34,-10.43,0.89,-3.05,0,0,0,-9.34,0.82,-2.84,6.78746247291565
,0,0.41,0.7,-0.26,0.53,0.28,1.04,-0.37,-10.25,0.92,-2.87,0,0,0,-9.32,0.78,-2.94,6.80198764801025
,0,0.41,0.7,-0.26,0.52,0.34,1.14,-0.42,-10.38,0.65,-2.82,0,0,0,-9.26,0.68,-3.13,6.81980729103088
,0,0.41,0.71,-0.26,0.51,0.37,1.18,-0.43,-10.27,-0.23,-2.77,0,0,0,-9.19,0.58,-3.35,6.83830237388611
,0,0.41,0.71,-0.26,0.51,0.41,1.24,-0.45,-10.5,-0.47,-2.34,0,0,0,-9.15,0.53,-3.46,6.85254096984863
,0,0.41,0.72,-0.26,0.5,0.58,1.3,-0.55,-10.92,-0.35,-2.59,0,0,0,-9.07,0.4,-3.69,6.86961889266968
,0,0.42,0.73,-0.26,0.48,0.8,1.38,-0.58,-11.69,0.85,-1.32,0,0,0,-8.97,0.24,-3.93,6.88763618469238
,0,0.42,0.73,-0.26,0.47,0.86,1.41,-0.59,-11.82,0.85,-0.65,0,0,0,-8.92,0.16,-4.06,6.90287518501282
,0,0.42,0.74,-0.26,0.46,1.12,1.57,-0.64,-13.87,1.17,0.09,0,0,0,-8.79,-0.02,-4.32,6.92005896568298
,0,0.43,0.74,-0.27,0.44,1.35,1.79,-0.75,-14.59,0.28,0.16,0,0,0,-8.64,-0.26,-4.61,6.93788194656372
,0,0.43,0.75,-0.27,0.43,1.51,1.89,-0.75,-13.53,-0.03,0.27,0,0,0,-8.55,-0.39,-4.76,6.95260381698608
,0,0.44,0.75,-0.28,0.4,1.77,2.06,-0.81,-13.14,0.48,-1.69,0,0,0,-8.35,-0.69,-5.08,6.97035050392151
,0,0.44,0.76,-0.29,0.38,1.74,2.18,-0.97,-14.09,1.94,-4.42,0,0,0,-8.12,-1.01,-5.39,6.98816871643066
,0,0.44,0.77,-0.29,0.36,1.18,2.14,-1.05,-13.01,1.25,-2.95,0,0,0,-8,-1.16,-5.55,7.0024573802948
,0,0.45,0.77,-0.29,0.34,0.87,1.97,-0.89,-10.7,1.34,-5.27,0,0,0,-7.75,-1.4,-5.83,7.0211501121521
,0,0.45,0.78,-0.29,0.32,0.93,1.81,-0.86,-8.38,-0.69,-7.87,0,0,0,-7.51,-1.63,-6.08,7.03901481628418
,0,0.45,0.78,-0.29,0.31,0.47,1.76,-0.87,-7.58,-1.76,-7.63,0,0,0,-7.39,-1.72,-6.2,7.05357122421265
,0,0.44,0.79,-0.29,0.3,-0.34,1.35,-0.81,-7.96,0.42,-3.16,0,0,0,-7.18,-1.82,-6.41,7.0711305141449
,0,0.44,0.8,-0.28,0.3,-0.75,0.62,-0.44,-7.06,0.89,0.76,0,0,0,-7.06,-1.81,-6.55,7.0889036655426
,0,0.44,0.8,-0.28,0.3,-0.7,0.29,-0.24,-6.82,0.75,0.41,0,0,0,-7.04,-1.78,-6.58,7.10369300842285
,0,0.44,0.8,-0.27,0.3,-0.74,-0.35,-0,-5.61,2.24,1.85,0,0,0,-7.06,-1.7,-6.58,7.12210035324097
,0,0.43,0.8,-0.27,0.31,-0.6,-1.17,0.38,-5.1,2.14,-1.28,0,0,0,-7.19,-1.58,-6.47,7.13898777961731
,0,0.43,0.8,-0.27,0.32,-0.73,-1.57,0.52,-5.04,1.31,-2.37,0,0,0,-7.3,-1.5,-6.37,7.15427923202515
,0,0.43,0.79,-0.27,0.34,-0.44,-2.12,0.68,-6,-1.38,-2.47,0,0,0,-7.55,-1.35,-6.1,7.17262101173401
,0,0.43,0.78,-0.28,0.36,-0.2,-2.6,0.8,-7.52,-0.98,-2.07,0,0,0,-7.86,-1.2,-5.73,7.18963479995728
,0,0.43,0.77,-0.28,0.37,-0.12,-2.85,0.89,-7.77,-0.89,-2.06,0,0,0,-8.02,-1.13,-5.51,7.20473408699036
,0,0.43,0.76,-0.29,0.4,-0.03,-3.3,1.06,-8.4,0.15,-2.57,0,0,0,-8.37,-0.96,-5.01,7.22248768806458
,0,0.43,0.74,-0.3,0.43,0.04,-3.65,1.24,-8.9,0.22,-3.9,0,0,0,-8.71,-0.77,-4.42,7.23982882499695
,0,0.42,0.72,-0.31,0.46,0.11,-3.75,1.33,-9.18,0.31,-4.33,0,0,0,-8.88,-0.66,-4.1,7.25487208366394
,0,0.42,0.7,-0.32,0.47,0.07,-3.85,1.49,-10.75,0.31,-4.81,0,0,0,-9.17,-0.41,-3.43,7.27318382263184
,0,0.42,0.68,-0.32,0.51,-0.15,-3.96,1.6,-11.87,0.29,-4.54,0,0,0,-9.41,-0.12,-2.72,7.28989958763123
,0,0.42,0.65,-0.33,0.54,-0.25,-4.05,1.66,-11.95,0.17,-4.84,0,0,0,-9.52,0.03,-2.35,7.30472755432129
,0,0.42,0.64,-0.33,0.56,-0.53,-4.07,1.68,-12.04,0.65,-5.16,0,0,0,-9.66,0.35,-1.59,7.32381248474121
,0,0.41,0.61,-0.34,0.59,-0.77,-4.08,1.72,-11.99,0.04,-5.59,0,0,0,-9.74,0.69,-0.82,7.34126901626587
,0,0.4,0.58,-0.34,0.62,-0.84,-4.05,1.7,-11.97,-0.07,-6.08,0,0,0,-9.75,0.86,-0.43,7.35502457618713
,0,0.4,0.57,-0.34,0.64,-0.99,-3.86,1.59,-12.01,0.17,-6.81,0,0,0,-9.73,1.16,0.32,7.37463712692261
,0,0.39,0.55,-0.33,0.66,-1.15,-3.53,1.49,-11.6,-0.06,-8.11,0,0,0,-9.64,1.43,1.03,7.39098691940308
,0,0.37,0.52,-0.33,0.69,-1.13,-3.3,1.4,-10.67,-1.05,-9.76,0,0,0,-9.58,1.55,1.35,7.40597820281982
,0,0.37,0.52,-0.33,0.7,-1.11,-2.66,1.18,-9.17,-1.76,-9.68,0,0,0,-9.45,1.74,1.91,7.4246621131897
,0,0.36,0.5,-0.32,0.72,-0.9,-1.76,0.89,-7.45,-1.41,-9.03,0,0,0,-9.34,1.88,2.31,7.44155597686768
,0,0.36,0.49,-0.32,0.73,-0.73,-1.29,0.78,-7.01,-1.29,-8.98,0,0,0,-9.26,1.98,2.52,7.45652770996094
,0,0.36,0.49,-0.32,0.73,-0.34,-0.36,0.52,-6.4,-0.28,-9.64,0,0,0,-9.24,2.02,2.56,7.47449588775635
,0,0.36,0.49,-0.31,0.73,-0.19,0.57,0.13,-6.57,-0.67,-9.72,0,0,0,-9.25,2.05,2.51,7.49121975898743
,0,0.36,0.5,-0.31,0.72,-0.27,1.03,-0.1,-7.12,0.12,-9.63,0,0,0,-9.32,1.99,2.3,7.50592350959778
,0,0.35,0.51,-0.31,0.72,-1.07,1.84,-0.6,-14.74,-0.89,15.69,0,0,0,-9.37,1.91,2.15,7.52457666397095
,0,0.35,0.53,-0.3,0.71,-0.36,1.45,-0.27,-16.45,-3.53,-1.91,0,0,0,-9.45,1.8,1.88,7.54134678840637
,0,0.35,0.54,-0.3,0.7,0.21,1.25,-0.2,-12.42,0.5,0.4,0,0,0,-9.5,1.74,1.64,7.55606317520142
,0,0.35,0.55,-0.3,0.7,-0.6,1.32,-0.56,-10.28,-0.58,-1.56,0,0,0,-9.53,1.68,1.52,7.57555866241455
,0,0.35,0.56,-0.29,0.69,-0.36,1.39,-0.38,-9.82,1.49,-2.7,0,0,0,-9.58,1.59,1.28,7.591637134552
,0,0.35,0.57,-0.28,0.69,-0.63,1.38,-0.36,-9.71,2,-3.59,0,0,0,-9.63,1.51,1.04,7.6065080165863
,0,0.34,0.59,-0.27,0.68,-1.51,1.49,-0.27,-9.65,2.49,-3.03,0,0,0,-9.65,1.47,0.92,7.62547421455383
,0,0.34,0.59,-0.26,0.68,-1.75,1.33,-0.1,-10.03,0.95,-1.8,0,0,0,-9.67,1.42,0.72,7.64191579818726
,0,0.33,0.6,-0.25,0.68,-1.45,1.17,-0.06,-10.85,0.34,-0.42,0,0,0,-9.69,1.39,0.55,7.65680408477783
,0,0.33,0.61,-0.25,0.68,-0.84,0.77,-0.06,-10.23,-0.92,-0.25,0,0,0,-9.69,1.38,0.49,7.67457413673401
,0,0.33,0.61,-0.25,0.68,-0.03,0.7,0.06,-8.85,-0.12,-1.57,0,0,0,-9.7,1.39,0.37,7.69137787818909
,0,0.33,0.62,-0.25,0.67,0.26,0.8,0.08,-8.84,0.62,-1.62,0,0,0,-9.7,1.4,0.2,7.70630693435669
,0,0.33,0.62,-0.24,0.67,0.01,1.01,-0,-10.03,1.57,-0.74,0,0,0,-9.7,1.4,0.1,7.72524809837341
,0,0.33,0.63,-0.24,0.66,-0.16,0.94,0.03,-10.24,1.67,-1.61,0,0,0,-9.7,1.4,-0.07,7.7416672706604
,0,0.34,0.63,-0.24,0.66,-0.23,0.88,0,-9.94,1.54,-1.48,0,0,0,-9.7,1.4,-0.23,7.7565598487854
,0,0.34,0.63,-0.23,0.66,0.11,0.8,-0.02,-9.82,1.79,-1.45,0,0,0,-9.7,1.4,-0.3,7.77484917640686
,0,0.34,0.64,-0.23,0.65,0.26,0.7,-0.04,-10.29,1.68,-1.24,0,0,0,-9.69,1.39,-0.44,7.7915153503418
,0,0.34,0.64,-0.23,0.65,0.15,0.62,-0.04,-10.08,1.44,-1.92,0,0,0,-9.69,1.38,-0.56,7.80656361579895
,0,0.34,0.65,-0.23,0.64,-0.17,0.62,-0.09,-10.27,1.14,-1.22,0,0,0,-9.68,1.37,-0.62,7.82541012763977
,0,0.34,0.65,-0.23,0.64,-0.35,0.6,-0.05,-9.45,1.39,-1.92,0,0,0,-9.68,1.36,-0.72,7.84185338020325
,0,0.34,0.65,-0.22,0.64,-0.4,0.6,-0.04,-9.6,1.37,-1.2,0,0,0,-9.67,1.36,-0.82,7.85642981529236
,0,0.34,0.66,-0.22,0.64,-0.23,0.55,-0.04,-9.33,0.58,-2.42,0,0,0,-9.67,1.36,-0.87,7.87515830993652
,0,0.34,0.66,-0.22,0.63,0.08,0.56,-0.06,-9.4,0.84,-1.58,0,0,0,-9.66,1.35,-0.98,7.89231777191162
,0,0.34,0.66,-0.22,0.63,0.2,0.55,-0.05,-9.19,1.34,-1.91,0,0,0,-9.65,1.33,-1.08,7.90668988227844
,0,0.34,0.67,-0.22,0.62,0.15,0.56,-0.04,-9.34,1.28,-1.66,0,0,0,-9.64,1.33,-1.14,7.92543005943298
,0,0.34,0.67,-0.22,0.62,0.08,0.55,-0.04,-9.43,0.78,-1.58,0,0,0,-9.63,1.32,-1.24,7.94194006919861
,0,0.35,0.67,-0.22,0.62,0.14,0.57,-0.04,-9.55,1.71,-1.61,0,0,0,-9.62,1.31,-1.35,7.95666527748108
,0,0.35,0.67,-0.22,0.61,0.08,0.58,-0.05,-9.73,1.54,-1.01,0,0,0,-9.61,1.3,-1.41,7.97535133361816
,0,0.35,0.68,-0.22,0.61,0.02,0.61,-0.1,-9.56,1.46,-1.41,0,0,0,-9.6,1.28,-1.52,7.99214315414429
,0,0.35,0.68,-0.22,0.61,0.03,0.64,-0.13,-9.73,1.55,-1.62,0,0,0,-9.58,1.26,-1.65,8.00716114044189
,0,0.35,0.69,-0.21,0.6,0.05,0.7,-0.17,-9.55,1.28,-2.58,0,0,0,-9.57,1.24,-1.71,8.02573394775391
,0,0.35,0.69,-0.21,0.6,0.1,0.77,-0.19,-9.68,1.21,-2.52,0,0,0,-9.55,1.2,-1.86,8.04227447509766
,0,0.35,0.69,-0.21,0.59,0.17,0.79,-0.2,-9.83,1.22,-2.63,0,0,0,-9.52,1.16,-2.01,8.05738401412964
,0,0.35,0.7,-0.21,0.59,0.25,0.84,-0.19,-9.81,0.83,-2.92,0,0,0,-9.51,1.14,-2.09,8.07581973075867
,0,0.35,0.7,-0.21,0.58,0.38,0.86,-0.16,-10.18,1.01,-2.63,0,0,0,-9.47,1.09,-2.25,8.09247541427612
,0,0.36,0.7,-0.22,0.57,0.4,0.86,-0.16,-10.19,0.8,-2.75,0,0,0,-9.44,1.04,-2.42,8.10722184181213
,0,0.36,0.71,-0.22,0.57,0.48,0.9,-0.19,-10.52,0.56,-2.77,0,0,0,-9.42,1.01,-2.51,8.12611746788025
,0,0.36,0.71,-0.22,0.56,0.49,0.99,-0.24,-10.49,0.33,-2.28,0,0,0,-9.37,0.95,-2.69,8.1427264213562
,0,0.36,0.72,-0.22,0.55,0.53,1.03,-0.28,-10.1,0.36,-2.41,0,0,0,-9.32,0.86,-2.9,8.15750980377197
,0,0.37,0.72,-0.22,0.54,0.65,1.14,-0.35,-10.1,-0.07,-2.61,0,0,0,-9.29,0.81,-3,8.17637372016907
,0,0.37,0.73,-0.22,0.53,0.94,1.3,-0.5,-11.07,1.94,-1.83,0,0,0,-9.22,0.68,-3.24,8.19298243522644
,0,0.38,0.73,-0.23,0.52,0.99,1.4,-0.49,-11.31,1.27,-2.03,0,0,0,-9.14,0.53,-3.51,8.20787644386292
,0,0.38,0.74,-0.23,0.5,0.91,1.55,-0.51,-11.89,0.89,-0.73,0,0,0,-9.08,0.45,-3.65,8.22599029541016
,0,0.38,0.75,-0.23,0.49,1.24,1.67,-0.53,-12.57,0.72,-0.94,0,0,0,-8.97,0.27,-3.95,8.24281120300293
,0,0.39,0.75,-0.24,0.47,1.33,1.76,-0.56,-14.54,-0.76,0.77,0,0,0,-8.82,0.07,-4.26,8.25816988945007
,0,0.4,0.76,-0.25,0.45,1.7,1.91,-0.55,-14.7,-0.76,1.22,0,0,0,-8.74,-0.04,-4.43,8.27646207809448
,0,0.4,0.76,-0.25,0.44,2.29,1.96,-0.53,-13.68,-1.67,-0.35,0,0,0,-8.57,-0.32,-4.74,8.29341650009155
,0,0.41,0.77,-0.27,0.41,2.35,2.03,-0.57,-12.74,0.78,-1.42,0,0,0,-8.37,-0.65,-5.06,8.30799388885498
,0,0.42,0.77,-0.28,0.38,2.55,2.15,-0.69,-12.15,2.48,-5.04,0,0,0,-8.25,-0.83,-5.22,8.32669997215271
,0,0.43,0.77,-0.28,0.37,1.67,2.2,-0.92,-11.96,0.9,-3.99,0,0,0,-8.01,-1.18,-5.52,8.3437557220459
,0,0.43,0.78,-0.29,0.35,1.46,2.18,-0.94,-9.45,1.8,-7.48,0,0,0,-7.75,-1.47,-5.81,8.35904383659363
,0,0.43,0.79,-0.29,0.33,1.08,1.99,-0.82,-9.2,1.09,-8.52,0,0,0,-7.63,-1.59,-5.94,8.37695264816284
,0,0.43,0.79,-0.29,0.32,0.07,1.76,-0.63,-9.12,0.82,-2.21,0,0,0,-7.39,-1.73,-6.2,8.39358758926392
,0,0.43,0.8,-0.28,0.31,-0.26,1.44,-0.47,-8.49,0.97,2.3,0,0,0,-7.22,-1.75,-6.38,8.4086332321167
,0,0.43,0.8,-0.28,0.31,-0.09,0.59,-0.07,-6.77,1.36,0.28,0,0,0,-7.19,-1.75,-6.43,8.42707276344299
,0,0.43,0.8,-0.28,0.31,-0.24,-0.15,0.19,-6.24,1.22,0.23,0,0,0,-7.19,-1.7,-6.44,8.44361519813538
,0,0.43,0.8,-0.28,0.32,-0.18,-0.52,0.31,-6.13,-0.62,-0.89,0,0,0,-7.29,-1.64,-6.34,8.45847487449646
,0,0.43,0.79,-0.28,0.33,0,-1.21,0.43,-5.97,-1.12,-0.77,0,0,0,-7.46,-1.58,-6.15,8.47678709030151
,0,0.43,0.79,-0.29,0.33,0.28,-1.76,0.56,-5.85,-0.95,-1.91,0,0,0,-7.58,-1.56,-6.01,8.49356341362
,0,0.43,0.78,-0.3,0.35,0.32,-2.02,0.63,-6.26,-0.21,-1.95,0,0,0,-7.84,-1.5,-5.68,8.50956225395203
,0,0.43,0.76,-0.3,0.37,0.28,-2.48,0.88,-6.55,0.52,-2.44,0,0,0,-8.14,-1.37,-5.28,8.52684569358826
,0,0.43,0.75,-0.31,0.38,-0.03,-2.88,1.12,-7.37,0.61,-2.74,0,0,0,-8.3,-1.28,-5.05,8.54431581497192
,0,0.43,0.74,-0.31,0.41,-0.13,-3.04,1.22,-8.54,-0.42,-3.5,0,0,0,-8.62,-1.06,-4.54,8.55939316749573
,0,0.43,0.72,-0.32,0.44,-0.23,-3.28,1.37,-9.12,-0.62,-3.66,0,0,0,-8.92,-0.8,-3.98,8.57732534408569
,0,0.43,0.71,-0.33,0.45,-0.16,-3.47,1.51,-9.89,-0.73,-4.08,0,0,0,-9.06,-0.66,-3.68,8.59416007995605
,0,0.43,0.69,-0.33,0.48,-0.18,-3.57,1.56,-10.85,-0.54,-4.01,0,0,0,-9.31,-0.37,-3.04,8.60948824882507
,0,0.43,0.66,-0.34,0.52,-0.17,-3.75,1.6,-10.86,-0.51,-4.22,0,0,0,-9.51,-0.07,-2.35,8.62722039222717
,0,0.43,0.65,-0.34,0.53,-0.23,-3.88,1.66,-11.5,0.01,-4.23,0,0,0,-9.6,0.08,-1.99,8.64437699317932
,0,0.42,0.62,-0.35,0.56,-0.25,-3.94,1.7,-11.87,0.21,-4.43,0,0,0,-9.71,0.41,-1.25,8.65911412239075
,0,0.42,0.59,-0.35,0.59,-0.32,-3.98,1.81,-11.91,0.19,-4.68,0,0,0,-9.76,0.76,-0.5,8.67738485336304
,0,0.41,0.58,-0.35,0.61,-0.64,-3.93,1.84,-12.36,0.38,-4.73,0,0,0,-9.76,0.94,-0.12,8.69435262680054
,0,0.4,0.55,-0.35,0.64,-0.82,-3.88,1.84,-12.36,0.34,-5.46,0,0,0,-9.7,1.28,0.62,8.70951724052429
,0,0.39,0.53,-0.35,0.67,-1.18,-3.71,1.79,-12.22,0.25,-6.19,0,0,0,-9.58,1.59,1.33,8.72734761238098
,0,0.39,0.51,-0.34,0.68,-1.4,-3.27,1.69,-11.43,-1.45,-9.03,0,0,0,-9.51,1.72,1.65,8.74393367767334
,0,0.38,0.5,-0.34,0.71,-1.43,-2.96,1.55,-10.21,-3.12,-9.43,0,0,0,-9.35,1.93,2.21,8.75908613204956
,0,0.37,0.48,-0.33,0.72,-1.25,-2.13,1.14,-8.73,-2.89,-9.44,0,0,0,-9.22,2.06,2.6,8.77738332748413
,0,0.36,0.48,-0.33,0.73,-0.97,-1.2,0.71,-7.24,-2.16,-9.77,0,0,0,-9.18,2.1,2.72,8.79460620880127
,0,0.36,0.48,-0.32,0.73,-0.81,-0.7,0.49,-6.14,-0.79,-10.26,0,0,0,-9.14,2.13,2.83,8.80954456329346
,0,0.36,0.48,-0.32,0.73,-0.57,0.39,0.05,-6.12,-0.06,-10.17,0,0,0,-9.17,2.09,2.74,8.82735919952393
,0,0.35,0.49,-0.32,0.73,-0.94,1.48,-0.37,-9.06,5.07,-5.49,0,0,0,-9.22,2.03,2.63,8.84430813789368
,0,0.34,0.51,-0.31,0.73,-1.75,1.88,-0.64,-18.1,-6.78,33.96,0,0,0,-9.34,1.83,2.35,8.85960507392883
,0,0.35,0.52,-0.3,0.72,-0.21,1.47,-0.17,-15.43,-4.52,2.99,0,0,0,-9.4,1.79,2.1,8.87826681137085
,0,0.35,0.53,-0.3,0.71,-0.1,1.42,-0.38,-12.35,-2.25,0.56,0,0,0,-9.44,1.76,1.97,8.89482760429382
,0,0.35,0.54,-0.3,0.7,0.66,1.31,-0.34,-9.75,0.43,-0.99,0,0,0,-9.5,1.71,1.71,8.90942859649658
,0,0.36,0.54,-0.3,0.69,0.8,1.31,-0.31,-10,1.42,-1.3,0,0,0,-9.55,1.68,1.44,8.92787003517151
,0,0.36,0.55,-0.3,0.69,0.18,1.34,-0.28,-9.6,2.69,-3.89,0,0,0,-9.57,1.65,1.32,8.94470977783203
,0,0.36,0.56,-0.3,0.68,-1.01,1.34,-0.28,-9.82,3.93,-2.1,0,0,0,-9.61,1.58,1.09,8.95995950698853
,0,0.35,0.57,-0.28,0.68,-1.27,1.24,-0.17,-9.85,1.93,-2.99,0,0,0,-9.64,1.52,0.91,8.97763323783875
,0,0.35,0.58,-0.28,0.68,-1.11,1.01,-0.05,-10.7,-0.66,0.96,0,0,0,-9.65,1.51,0.83,8.9947681427002
,0,0.35,0.58,-0.27,0.68,-0.39,0.68,0.03,-10.09,0.05,-0.14,0,0,0,-9.66,1.51,0.7,9.00965881347656
,0,0.35,0.59,-0.27,0.68,-0.18,0.63,0.07,-10.07,-0.3,0.16,0,0,0,-9.66,1.52,0.59,9.02784371376038
,0,0.35,0.59,-0.27,0.67,0.27,0.67,0.07,-9.26,0.76,-1.67,0,0,0,-9.67,1.53,0.52,9.04537749290466
,0,0.36,0.59,-0.27,0.67,0.03,0.78,0.06,-10.12,1.56,-0.52,0,0,0,-9.67,1.54,0.38,9.06012964248657
,0,0.36,0.6,-0.27,0.66,0,0.77,0.09,-10.28,1.18,-0.82,0,0,0,-9.67,1.55,0.24,9.07836103439331
,0,0.36,0.6,-0.26,0.66,-0.03,0.71,0.08,-10.44,1.12,-1.17,0,0,0,-9.67,1.56,0.17,9.09499311447144
,0,0.36,0.6,-0.26,0.66,0.26,0.59,0.09,-10.2,1.43,-1.34,0,0,0,-9.67,1.58,0.05,9.10993313789368
,0,0.37,0.61,-0.26,0.66,0.29,0.54,0.08,-10.18,1.59,-1.2,0,0,0,-9.67,1.59,-0.05,9.12782120704651
,0,0.37,0.61,-0.26,0.65,0.28,0.48,0.02,-10.25,1.59,-0.17,0,0,0,-9.67,1.59,-0.1,9.14545774459839
,0,0.37,0.61,-0.26,0.65,0.09,0.5,-0.04,-9.63,2.1,-0.59,0,0,0,-9.67,1.59,-0.19,9.15951538085938
,0,0.37,0.61,-0.26,0.65,-0.03,0.54,-0.04,-9.44,2.24,-0.64,0,0,0,-9.67,1.58,-0.29,9.17808651924133
,0,0.37,0.62,-0.26,0.64,-0.1,0.6,-0.06,-9.26,2.27,-0.29,0,0,0,-9.67,1.57,-0.35,9.19553470611572
,0,0.37,0.62,-0.26,0.64,-0.03,0.64,-0.09,-8.94,2.45,-1.5,0,0,0,-9.66,1.56,-0.46,9.21067810058594
,0,0.37,0.63,-0.25,0.64,-0.03,0.67,-0.1,-9.12,1.99,-0.84,0,0,0,-9.66,1.54,-0.59,9.22832202911377
,0,0.37,0.63,-0.25,0.63,0.06,0.67,-0.14,-9.27,1.83,-1.2,0,0,0,-9.66,1.53,-0.65,9.24593377113342
,0,0.37,0.63,-0.25,0.63,0.01,0.74,-0.16,-9.36,1.79,-1.21,0,0,0,-9.65,1.5,-0.79,9.26094770431519
,0,0.37,0.64,-0.25,0.63,-0.07,0.73,-0.19,-9.44,1.93,-1.02,0,0,0,-9.65,1.47,-0.92,9.27873206138611
,0,0.37,0.64,-0.25,0.62,-0.16,0.77,-0.19,-9.73,1.74,-1.1,0,0,0,-9.64,1.45,-0.99,9.29582285881042
,0,0.37,0.65,-0.24,0.62,-0.29,0.75,-0.2,-9.63,0.71,-1.61,0,0,0,-9.63,1.42,-1.13,9.31130790710449
,0,0.37,0.65,-0.24,0.61,-0.18,0.78,-0.2,-9.84,1.05,-1.81,0,0,0,-9.62,1.38,-1.27,9.32879018783569
,0,0.37,0.66,-0.24,0.61,-0.13,0.77,-0.24,-10.05,0.91,-1.49,0,0,0,-9.61,1.36,-1.34,9.34656858444214
,0,0.37,0.66,-0.24,0.61,-0,0.78,-0.24,-9.84,1.12,-1.64,0,0,0,-9.6,1.32,-1.48,9.36221480369568
,0,0.37,0.67,-0.24,0.6,0.06,0.81,-0.24,-9.98,1.13,-1.86,0,0,0,-9.58,1.27,-1.63,9.3783917427063
,0,0.37,0.67,-0.24,0.6,0.19,0.86,-0.25,-10.14,0.87,-1.61,0,0,0,-9.57,1.24,-1.72,9.39614248275757
,0,0.38,0.67,-0.24,0.59,0.19,0.88,-0.29,-9.93,0.25,-2.8,0,0,0,-9.54,1.18,-1.88,9.41143107414246
,0,0.38,0.68,-0.24,0.58,0.33,0.96,-0.29,-10,0.55,-2.31,0,0,0,-9.51,1.11,-2.07,9.42930746078491
,0,0.38,0.68,-0.24,0.58,0.31,0.98,-0.31,-10.48,0.35,-2.03,0,0,0,-9.5,1.08,-2.16,9.44672179222107
,0,0.38,0.69,-0.24,0.57,0.44,1.06,-0.32,-11.02,0.65,-1.76,0,0,0,-9.46,1,-2.37,9.46221995353699
,0,0.38,0.7,-0.24,0.56,0.48,1.12,-0.34,-10.54,0.83,-2.35,0,0,0,-9.41,0.92,-2.58,9.47852802276611
,0,0.39,0.7,-0.24,0.55,0.48,1.23,-0.41,-10.36,1.02,-2.43,0,0,0,-9.38,0.87,-2.7,9.49635982513428
,0,0.39,0.71,-0.24,0.54,0.57,1.36,-0.52,-10.49,1.58,-1.94,0,0,0,-9.31,0.75,-2.95,9.51235413551331
,0,0.39,0.72,-0.24,0.53,0.63,1.44,-0.56,-11.36,2.02,-1.1,0,0,0,-9.23,0.61,-3.22,9.5292694568634
,0,0.39,0.72,-0.24,0.51,0.65,1.53,-0.59,-11.09,1.59,-1.82,0,0,0,-9.19,0.54,-3.36,9.54661893844604
,0,0.4,0.73,-0.25,0.5,0.85,1.68,-0.66,-12.03,1.02,-0.5,0,0,0,-9.08,0.37,-3.66,9.56267833709717
,0,0.4,0.74,-0.25,0.48,0.95,1.73,-0.66,-14.02,-0.3,0.32,0,0,0,-8.95,0.18,-3.98,9.57945799827576
,0,0.4,0.74,-0.25,0.47,1.28,1.93,-0.68,-14.61,-0.84,1.22,0,0,0,-8.88,0.07,-4.15,9.59739089012146
,0,0.41,0.75,-0.26,0.45,1.98,2,-0.64,-13.95,-1.53,-0.36,0,0,0,-8.71,-0.18,-4.48,9.61299729347229
,0,0.42,0.75,-0.27,0.42,2.21,2.07,-0.61,-12.68,-1.13,-0.8,0,0,0,-8.52,-0.49,-4.82,9.62964534759521
,0,0.43,0.76,-0.28,0.4,2.48,2.22,-0.69,-12.31,-0.09,-1.94,0,0,0,-8.41,-0.67,-4.99,9.64723658561707
,0,0.44,0.76,-0.29,0.38,2.05,2.26,-0.9,-13.08,1.79,-3.44,0,0,0,-8.17,-1.03,-5.32,9.66379952430725
,0,0.44,0.77,-0.29,0.36,1.72,2.2,-0.93,-11.05,1.37,-3.23,0,0,0,-7.92,-1.35,-5.61,9.68009662628174
,0,0.44,0.77,-0.3,0.34,1.64,1.99,-0.9,-10.26,1.6,-5.81,0,0,0,-7.8,-1.51,-5.74,9.69767379760742
,0,0.45,0.78,-0.3,0.32,1.17,1.92,-0.81,-9.01,-0.23,-9.08,0,0,0,-7.55,-1.79,-5.98,9.71443033218384
,0,0.45,0.78,-0.3,0.3,0.76,1.84,-0.76,-8.37,0.1,-4.7,0,0,0,-7.33,-1.96,-6.21,9.730135679245
,0,0.45,0.79,-0.3,0.3,-0.03,1.2,-0.47,-8.48,0.76,-1.36,0,0,0,-7.24,-1.99,-6.29,9.74765563011169
,0,0.45,0.79,-0.3,0.29,-0.13,0.45,-0.07,-6.89,1.21,-0.44,0,0,0,-7.16,-1.99,-6.39,9.76392364501953
,0,0.45,0.79,-0.29,0.3,-0.29,0.09,0.05,-6.24,2.25,1.61,0,0,0,-7.17,-1.94,-6.39,9.7797679901123
,0,0.45,0.79,-0.29,0.31,-0.27,-0.66,0.34,-5.64,1.12,0.14,0,0,0,-7.22,-1.9,-6.35,9.79752969741821
,0,0.45,0.78,-0.29,0.31,-0.26,-1.33,0.5,-5.12,-0.46,-1.83,0,0,0,-7.38,-1.8,-6.19,9.81470990180969
,0,0.45,0.78,-0.3,0.33,-0.19,-1.6,0.55,-5.49,-0.78,-2.19,0,0,0,-7.6,-1.7,-5.94,9.83049345016479
,0,0.45,0.77,-0.31,0.35,-0.06,-2.08,0.68,-5.63,-0.71,-2.26,0,0,0,-7.73,-1.64,-5.79,9.84756875038147
,0,0.44,0.76,-0.31,0.36,-0.2,-2.57,0.87,-6.74,0.4,-2.41,0,0,0,-8.02,-1.5,-5.42,9.86447834968567
,0,0.44,0.75,-0.32,0.38,-0.29,-2.78,0.97,-7.31,0.62,-2.49,0,0,0,-8.34,-1.31,-4.97,9.88024520874023
,0,0.44,0.73,-0.32,0.41,-0.39,-3.14,1.18,-7.67,0.2,-3.55,0,0,0,-8.5,-1.19,-4.72,9.89818072319031
,0,0.44,0.72,-0.32,0.43,-0.44,-3.39,1.33,-8.48,-0.28,-3.89,0,0,0,-8.82,-0.94,-4.17,9.91452169418335
,0,0.43,0.7,-0.33,0.46,-0.39,-3.51,1.39,-10.08,0.01,-4.19,0,0,0,-9.11,-0.66,-3.56,9.93029093742371
,0,0.43,0.68,-0.34,0.49,-0.41,-3.71,1.51,-10.59,0.17,-4.23,0,0,0,-9.24,-0.51,-3.23,9.94793200492859
,0,0.43,0.67,-0.34,0.51,-0.55,-3.93,1.54,-11.33,0.49,-4.63,0,0,0,-9.47,-0.21,-2.53,9.96489334106445
,0,0.42,0.64,-0.34,0.54,-0.76,-4.08,1.6,-11.65,0.77,-4.8,0,0,0,-9.64,0.11,-1.78,9.98053789138794
,0,0.41,0.62,-0.35,0.57,-0.82,-4.12,1.64,-11.93,1,-4.93,0,0,0,-9.7,0.27,-1.4,9.99800181388855
,0,0.41,0.6,-0.35,0.59,-0.9,-4.14,1.74,-12.41,1.1,-5.24,0,0,0,-9.76,0.61,-0.61,10.0153241157532
,0,0.4,0.58,-0.35,0.62,-1.13,-4.07,1.8,-12.7,0.83,-6.34,0,0,0,-9.75,0.96,0.17,10.0306248664856
,0,0.39,0.55,-0.34,0.66,-1.26,-3.96,1.8,-12.73,0.55,-6.28,0,0,0,-9.67,1.28,0.93,10.0485599040985
,0,0.38,0.54,-0.34,0.67,-1.3,-3.64,1.82,-12.59,0.26,-6.39,0,0,0,-9.61,1.44,1.29,10.0656082630157
,0,0.37,0.51,-0.33,0.7,-1.09,-3.13,1.82,-11.74,-1.48,-9.16,0,0,0,-9.45,1.74,1.93,10.0813579559326
,0,0.37,0.49,-0.33,0.72,-0.91,-2.78,1.74,-10.83,-2.26,-9.71,0,0,0,-9.28,2.01,2.43,10.0989003181458
,0,0.37,0.48,-0.33,0.73,-0.46,-1.83,1.36,-7.79,-2.19,-10.1,0,0,0,-9.21,2.12,2.6,10.1161239147186
,0,0.36,0.47,-0.32,0.74,-0.35,-0.79,0.89,-5.85,-1.09,-10.2,0,0,0,-9.11,2.28,2.8,10.1333277225494
,0,0.36,0.47,-0.32,0.74,-0.34,-0.21,0.62,-5.63,-1.46,-9.57,0,0,0,-9.09,2.34,2.81,10.149796962738
,0,0.36,0.48,-0.31,0.73,-0.56,0.93,0.01,-5.88,-1.43,-8.97,0,0,0,-9.12,2.33,2.74,10.1674239635468
,0,0.35,0.51,-0.3,0.73,-1.6,1.99,-0.69,-11.72,1.41,3.54,0,0,0,-9.23,2.18,2.48,10.1876327991486
,0,0.35,0.51,-0.29,0.73,-0.82,1.53,-0.26,-18.61,-4.25,5.46,0,0,0,-9.33,2.03,2.21,10.2027859687805
,0,0.35,0.53,-0.29,0.72,-0.29,1.4,-0.26,-11.97,-4.18,2.14,0,0,0,-9.4,1.95,1.96,10.2194409370422
,0,0.35,0.54,-0.29,0.71,-0.4,1.62,-0.71,-11.39,-2.27,-0.49,0,0,0,-9.48,1.83,1.66,10.2393255233765
,0,0.35,0.55,-0.29,0.7,0.08,1.67,-0.47,-10.42,3.3,-0.98,0,0,0,-9.52,1.79,1.51,10.2533314228058
,0,0.35,0.56,-0.28,0.69,0.08,1.67,-0.47,-8.59,4.3,-4.57,0,0,0,-9.58,1.68,1.21,10.2700426578522
,0,0.34,0.58,-0.27,0.69,-1.54,1.85,-0.65,-8.4,6.23,-2.41,0,0,0,-9.64,1.53,0.91,10.2896068096161
,0,0.34,0.59,-0.27,0.68,-1.78,1.73,-0.27,-8.84,1.91,-3.98,0,0,0,-9.66,1.49,0.77,10.3039050102234
,0,0.33,0.6,-0.25,0.68,-1.78,1.73,-0.27,-11.44,-0.9,1.1,0,0,0,-9.68,1.41,0.51,10.3195044994354
,0,0.33,0.61,-0.25,0.68,-1.06,1.23,-0.28,-10.55,-1.19,-0.29,0,0,0,-9.7,1.36,0.33,10.3395507335663
,0,0.33,0.62,-0.25,0.67,0.17,0.9,-0.16,-9.79,0.36,-1.37,0,0,0,-9.7,1.35,0.24,10.3538563251495
,0,0.33,0.62,-0.24,0.67,0.17,0.9,-0.16,-9.64,0.75,-2.26,0,0,0,-9.71,1.32,0.06,10.3696789741516
,0,0.33,0.63,-0.24,0.66,-0.07,1.23,-0.12,-10.18,0.49,-0.93,0,0,0,-9.71,1.29,-0.17,10.3893501758575
,0,0.33,0.64,-0.24,0.66,-0.44,1.23,-0.15,-9.94,1.72,-1.04,0,0,0,-9.71,1.28,-0.28,10.4042413234711
,0,0.33,0.65,-0.23,0.65,-0.44,1.23,-0.15,-9.57,1.16,-2.84,0,0,0,-9.71,1.25,-0.49,10.4203162193298
,0,0.33,0.65,-0.23,0.64,-0.35,1.12,-0.16,-9.93,1.07,-2.3,0,0,0,-9.7,1.22,-0.69,10.4399054050446
,0,0.33,0.66,-0.23,0.64,0.05,0.96,-0.18,-10.13,1.12,-2.19,0,0,0,-9.69,1.21,-0.78,10.4536037445068
,0,0.33,0.66,-0.23,0.63,0.07,0.86,-0.16,-10.51,1.47,-1.63,0,0,0,-9.68,1.17,-0.94,10.4703605175018
,0,0.33,0.67,-0.22,0.63,-0.15,0.79,-0.22,-10.55,1.22,-1.86,0,0,0,-9.67,1.14,-1.08,10.4897277355194
,0,0.33,0.67,-0.22,0.63,-0.38,0.73,-0.16,-9.98,0.57,-1.94,0,0,0,-9.67,1.13,-1.14,10.504371881485
,0,0.33,0.68,-0.22,0.62,-0.43,0.71,-0.12,-9.61,0.39,-2.37,0,0,0,-9.65,1.12,-1.26,10.5198471546173
,0,0.33,0.68,-0.21,0.62,-0.35,0.63,-0.08,-9.61,0.48,-2.67,0,0,0,-9.64,1.11,-1.37,10.5397553443909
,0,0.33,0.68,-0.21,0.62,-0.11,0.54,-0.05,-9.6,-0.09,-2.52,0,0,0,-9.63,1.11,-1.42,10.5541701316833
,0,0.33,0.69,-0.21,0.61,0.08,0.48,-0.03,-9.46,0.77,-2.95,0,0,0,-9.62,1.1,-1.51,10.5700368881226
,0,0.33,0.69,-0.21,0.61,0.22,0.42,0.02,-9.6,0.87,-2.83,0,0,0,-9.61,1.1,-1.59,10.5893952846527
,0,0.33,0.69,-0.21,0.61,0.14,0.38,0.03,-9.73,0.48,-2.59,0,0,0,-9.6,1.1,-1.63,10.6040771007538
,0,0.33,0.69,-0.21,0.61,0.15,0.37,0.03,-9.71,0.44,-2.28,0,0,0,-9.59,1.1,-1.7,10.6200680732727
,0,0.33,0.69,-0.21,0.6,0.19,0.36,0.05,-9.85,1.36,-2.06,0,0,0,-9.58,1.11,-1.77,10.6395683288574
,0,0.34,0.69,-0.21,0.6,0.11,0.33,0.07,-9.87,1.33,-2.23,0,0,0,-9.57,1.11,-1.8,10.6539568901062
,0,0.34,0.69,-0.21,0.6,0.06,0.34,0.07,-9.99,0.71,-1.74,0,0,0,-9.56,1.12,-1.87,10.6700274944305
,0,0.34,0.7,-0.21,0.6,0.1,0.34,0.07,-9.91,0.68,-1.82,0,0,0,-9.54,1.13,-1.93,10.6895017623901
,0,0.34,0.7,-0.21,0.6,0.21,0.32,0.09,-9.64,0.98,-1.98,0,0,0,-9.53,1.13,-1.96,10.7039148807526
,0,0.34,0.7,-0.21,0.59,0.22,0.36,0.08,-9.68,1.01,-1.82,0,0,0,-9.52,1.14,-2.04,10.7200586795807
,0,0.35,0.7,-0.21,0.59,0.28,0.42,0.06,-9.43,0.81,-2.5,0,0,0,-9.5,1.14,-2.12,10.7397217750549
,0,0.35,0.7,-0.21,0.59,0.37,0.53,0.03,-9.89,1.21,-1.95,0,0,0,-9.49,1.13,-2.17,10.754227399826
,0,0.35,0.7,-0.21,0.58,0.4,0.58,0.01,-9.9,1.42,-2.89,0,0,0,-9.46,1.11,-2.29,10.770015001297
,0,0.35,0.71,-0.21,0.58,0.42,0.7,-0.05,-10.14,1.29,-2.49,0,0,0,-9.43,1.08,-2.44,10.7891023159027
,0,0.36,0.71,-0.21,0.57,0.51,0.86,-0.13,-9.99,1.83,-2.3,0,0,0,-9.41,1.06,-2.52,10.803514957428
,0,0.36,0.71,-0.21,0.56,0.54,0.88,-0.16,-9.92,1.7,-1.93,0,0,0,-9.37,1,-2.7,10.8196706771851
,0,0.36,0.72,-0.21,0.55,0.56,0.98,-0.22,-9.83,1.56,-1.89,0,0,0,-9.32,0.92,-2.89,10.8387138843536
,0,0.37,0.72,-0.22,0.55,0.69,1.09,-0.31,-10.07,2.41,-0.96,0,0,0,-9.29,0.88,-3,10.8536150455475
,0,0.37,0.73,-0.22,0.54,0.78,1.23,-0.39,-10.72,2.49,-2.04,0,0,0,-9.22,0.76,-3.23,10.8705966472626
,0,0.37,0.73,-0.22,0.52,0.75,1.34,-0.44,-11.57,1.68,-0.99,0,0,0,-9.13,0.62,-3.5,10.8893604278564
,0,0.37,0.74,-0.22,0.51,0.84,1.55,-0.55,-12.48,-0.32,-1.61,0,0,0,-9.08,0.55,-3.64,10.903293132782
,0,0.38,0.75,-0.23,0.5,1.05,1.62,-0.57,-14.55,-4.08,0.82,0,0,0,-8.96,0.36,-3.95,10.9197869300842
,0,0.39,0.75,-0.24,0.47,1.73,1.89,-0.6,-15.11,-4.74,2,0,0,0,-8.81,0.09,-4.28,10.9390416145325
,0,0.4,0.76,-0.25,0.46,2.8,1.93,-0.59,-14.14,-2.02,1.67,0,0,0,-8.73,-0.06,-4.45,10.9542803764343
,0,0.41,0.76,-0.26,0.43,3.12,1.96,-0.63,-13.26,-0.28,0.56,0,0,0,-8.55,-0.46,-4.76,10.9701299667358
,0,0.42,0.76,-0.28,0.4,3.22,2.05,-0.72,-12.12,3.31,-5.76,0,0,0,-8.45,-0.67,-4.91,10.9892325401306
,0,0.43,0.76,-0.29,0.39,2.42,2.33,-0.98,-13.1,3.3,-3.76,0,0,0,-8.21,-1.08,-5.23,11.0040185451508
,0,0.43,0.77,-0.3,0.36,1.84,2.38,-0.99,-12.38,2.15,-1.49,0,0,0,-7.94,-1.42,-5.56,11.0200154781342
,0,0.44,0.78,-0.3,0.33,1.99,2.24,-0.98,-10.12,1.06,-7.66,0,0,0,-7.81,-1.61,-5.7,11.0392212867737
,0,0.44,0.78,-0.3,0.32,1.01,2.18,-0.98,-9.78,-0.73,-7.07,0,0,0,-7.53,-1.9,-5.98,11.0537676811218
,0,0.44,0.79,-0.3,0.3,0.32,2.11,-0.87,-9.7,0.78,-4.43,0,0,0,-7.26,-2.04,-6.25,11.0698595046997
,0,0.44,0.8,-0.29,0.29,-0.17,1.5,-0.46,-8.2,0.04,0.3,0,0,0,-7.16,-2.06,-6.36,11.0893995761871
,0,0.44,0.8,-0.29,0.29,-0.01,0.75,-0.03,-6.7,0.84,-0.49,0,0,0,-7.04,-2.07,-6.49,11.1044607162476
,0,0.44,0.8,-0.29,0.29,0.08,0.4,0.12,-6.85,1.58,0.03,0,0,0,-7.02,-2.05,-6.52,11.1205492019653
,0,0.45,0.79,-0.29,0.29,0.11,-0.38,0.42,-5.68,-0.21,-1.48,0,0,0,-7.05,-2.03,-6.49,11.1387391090393
,0,0.45,0.79,-0.3,0.3,0.4,-0.99,0.6,-6.11,-1.11,-1.45,0,0,0,-7.18,-1.99,-6.36,11.1541140079498
,0,0.45,0.78,-0.3,0.31,0.48,-1.27,0.65,-6.34,-1.15,-0.94,0,0,0,-7.38,-1.95,-6.14,11.1701381206512
,0,0.45,0.77,-0.31,0.32,0.48,-1.89,0.75,-6.19,-0.81,-1.99,0,0,0,-7.51,-1.92,-6,11.1893444061279
,0,0.45,0.76,-0.32,0.33,0.33,-2.4,0.96,-6.29,0.61,-1.91,0,0,0,-7.8,-1.84,-5.65,11.2036788463593
,0,0.45,0.75,-0.33,0.36,0.23,-2.64,1.1,-6.39,0.88,-2.42,0,0,0,-8.12,-1.67,-5.22,11.2202880382538
,0,0.45,0.73,-0.34,0.38,-0.07,-3.02,1.36,-7.38,0.57,-3.08,0,0,0,-8.3,-1.56,-4.98,11.2391149997711
,0,0.45,0.72,-0.34,0.4,-0.32,-3.33,1.6,-8.16,-0.15,-3.11,0,0,0,-8.64,-1.28,-4.45,11.2545802593231
,0,0.45,0.7,-0.34,0.43,-0.36,-3.44,1.71,-9.24,-0.65,-3.15,0,0,0,-8.96,-0.95,-3.86,11.2700161933899
,0,0.45,0.68,-0.35,0.46,-0.34,-3.7,1.88,-10.17,-1.01,-3.48,0,0,0,-9.1,-0.78,-3.54,11.2893521785736
,0,0.45,0.67,-0.35,0.48,-0.26,-3.95,1.91,-11.33,-0.71,-3.95,0,0,0,-9.37,-0.42,-2.85,11.304078578949
,0,0.44,0.64,-0.36,0.51,-0.33,-4.07,1.93,-12.03,-0.03,-4.62,0,0,0,-9.57,-0.04,-2.1,11.3201320171356
,0,0.44,0.61,-0.36,0.55,-0.6,-4.2,1.97,-12.45,0.38,-5.02,0,0,0,-9.65,0.14,-1.71,11.3393476009369
,0,0.43,0.6,-0.36,0.57,-0.99,-4.25,1.98,-12.31,-0.07,-6.23,0,0,0,-9.74,0.54,-0.9,11.3542528152466
,0,0.42,0.57,-0.36,0.6,-1.18,-4.2,1.94,-12.25,-0.46,-7.11,0,0,0,-9.76,0.91,-0.1,11.3704056739807
,0,0.41,0.55,-0.36,0.64,-1.68,-4,1.81,-12.28,-0.23,-7.21,0,0,0,-9.74,1.08,0.29,11.3893809318542
,0,0.4,0.54,-0.36,0.65,-1.96,-3.66,1.62,-11.17,-0.72,-9.51,0,0,0,-9.65,1.37,1.04,11.4046380519867
,0,0.38,0.52,-0.35,0.68,-1.95,-3.39,1.54,-10.2,-1.07,-10.6,0,0,0,-9.52,1.59,1.69,11.4203879833221
,0,0.37,0.5,-0.34,0.71,-2,-2.64,1.27,-8.82,-1.94,-9.98,0,0,0,-9.45,1.67,1.97,11.4388129711151
,0,0.36,0.5,-0.33,0.71,-1.72,-1.73,1.01,-7.21,-2.36,-10.44,0,0,0,-9.33,1.79,2.38,11.4548740386963
,0,0.35,0.49,-0.33,0.73,-1.48,-1.24,0.86,-5.92,-2.62,-11.38,0,0,0,-9.26,1.86,2.61,11.4710111618042
,0,0.35,0.49,-0.32,0.73,-0.91,-0.15,0.4,-6.09,-2.02,-11.14,0,0,0,-9.25,1.87,2.64,11.4894413948059
,0,0.35,0.5,-0.32,0.73,-0.76,0.9,-0.13,-7.28,-0.58,-9.07,0,0,0,-9.28,1.84,2.55,11.5045399665833
,0,0.34,0.52,-0.31,0.72,-0.82,1.39,-0.38,-14.71,5.51,14.08,0,0,0,-9.37,1.69,2.31,11.520712852478
,0,0.34,0.53,-0.31,0.72,-0.99,1.77,-0.41,-16.85,2.22,30.45,0,0,0,-9.42,1.63,2.16,11.5395150184631
,0,0.34,0.53,-0.3,0.71,-0.88,0.88,-0.09,-13.15,-5.35,2.09,0,0,0,-9.46,1.63,1.98,11.5552961826324
,0,0.34,0.54,-0.3,0.71,-0.64,1.07,-0.18,-11.15,-3.85,-0.95,0,0,0,-9.51,1.57,1.78,11.5710663795471
,0,0.34,0.55,-0.3,0.7,0.18,1.37,-0.44,-10.39,-0.07,-0.02,0,0,0,-9.54,1.53,1.65,11.5888392925262
,0,0.35,0.56,-0.3,0.69,0.47,1.49,-0.3,-9.91,1.66,-1.95,0,0,0,-9.59,1.48,1.36,11.6047587394714
,0,0.35,0.57,-0.3,0.68,0.4,1.45,-0.23,-9.57,5,-2.83,0,0,0,-9.63,1.43,1.08,11.6205213069916
,0,0.35,0.57,-0.29,0.68,-0.8,1.58,-0.45,-10.17,4.68,-0.68,0,0,0,-9.66,1.38,0.94,11.6385791301727
,0,0.34,0.59,-0.28,0.68,-1.48,1.55,-0.29,-10.19,1.06,-2,0,0,0,-9.69,1.3,0.68,11.6541528701782
,0,0.34,0.6,-0.27,0.67,-1.69,1.41,-0.27,-10.46,0.48,-0.3,0,0,0,-9.71,1.24,0.47,11.6704819202423
,0,0.33,0.61,-0.26,0.67,-0.86,1.02,-0.17,-9.7,-1.09,-1.2,0,0,0,-9.72,1.22,0.38,11.6885759830475
,0,0.33,0.61,-0.26,0.67,-0.01,0.87,-0.11,-9.86,-0.58,-1.31,0,0,0,-9.73,1.19,0.22,11.704461812973
,0,0.34,0.62,-0.26,0.66,0.28,0.89,-0.11,-9.89,0.59,-1.7,0,0,0,-9.73,1.17,0.04,11.7205457687378
,0,0.34,0.62,-0.26,0.65,0.42,1.06,-0.15,-9.97,1.97,-1.48,0,0,0,-9.73,1.16,-0.06,11.7386524677277
,0,0.34,0.63,-0.26,0.65,0.29,1.22,-0.16,-9.47,2.7,-2.7,0,0,0,-9.73,1.13,-0.29,11.754646062851
,0,0.35,0.64,-0.26,0.64,0.04,1.16,-0.18,-9.72,2.36,-2.12,0,0,0,-9.73,1.09,-0.5,11.7703084945679
,0,0.35,0.64,-0.26,0.63,-0.21,1.06,-0.22,-9.74,1.83,-2.74,0,0,0,-9.72,1.07,-0.6,11.7887153625488
,0,0.35,0.65,-0.25,0.63,-0.26,0.92,-0.21,-10.36,0.69,-1.8,0,0,0,-9.72,1.03,-0.77,11.8050332069397
,0,0.34,0.65,-0.25,0.62,-0.3,0.87,-0.23,-10.27,0.36,-2.2,0,0,0,-9.71,1,-0.92,11.820921421051
,0,0.34,0.66,-0.25,0.62,-0.37,0.77,-0.23,-10.33,0.72,-1.87,0,0,0,-9.7,0.98,-0.99,11.8385188579559
,0,0.34,0.66,-0.24,0.62,-0.56,0.7,-0.18,-9.8,0.87,-1.8,0,0,0,-9.69,0.95,-1.12,11.85458111763
,0,0.34,0.67,-0.24,0.62,-0.59,0.66,-0.13,-9.45,-0.13,-2.89,0,0,0,-9.68,0.94,-1.22,11.870677947998
,0,0.34,0.67,-0.23,0.61,-0.48,0.61,-0.07,-9.61,-0.15,-1.82,0,0,0,-9.67,0.94,-1.28,11.8894982337952
,0,0.34,0.68,-0.23,0.61,-0.09,0.52,-0.03,-9.39,0.17,-2.85,0,0,0,-9.66,0.94,-1.38,11.9055037498474
,0,0.34,0.68,-0.23,0.61,-0.01,0.49,-0.02,-9.56,0.74,-2.45,0,0,0,-9.64,0.94,-1.47,11.9211452007294
,0,0.34,0.68,-0.23,0.61,0.04,0.46,-0,-9.27,0.58,-3.02,0,0,0,-9.64,0.93,-1.51,11.9385769367218
,0,0.34,0.68,-0.23,0.6,0.06,0.48,0.01,-9.32,1.23,-3.1,0,0,0,-9.62,0.93,-1.6,11.9553234577179
,0,0.34,0.69,-0.23,0.6,-0.06,0.49,0,-9.5,0.94,-2.85,0,0,0,-9.61,0.94,-1.69,11.9714477062225
,0,0.34,0.69,-0.23,0.6,-0.02,0.49,0.02,-9.6,1.06,-2.09,0,0,0,-9.6,0.94,-1.74,11.9895119667053
,0,0.34,0.69,-0.23,0.6,-0.06,0.46,0.01,-9.9,0.92,-1.66,0,0,0,-9.58,0.94,-1.82,12.0055406093597
,0,0.34,0.69,-0.22,0.59,-0.04,0.44,-0,-9.98,1.02,-1.92,0,0,0,-9.57,0.94,-1.91,12.0208973884583
,0,0.34,0.7,-0.22,0.59,0.02,0.5,-0.01,-9.99,0.6,-1.43,0,0,0,-9.56,0.94,-1.95,12.0390467643738
,0,0.35,0.7,-0.22,0.59,0.16,0.59,-0.02,-9.7,0.74,-1.77,0,0,0,-9.54,0.94,-2.06,12.0552711486816
,0,0.35,0.7,-0.22,0.58,0.22,0.65,-0.03,-10.03,1.05,-1.84,0,0,0,-9.51,0.92,-2.18,12.0710711479187
,0,0.35,0.7,-0.22,0.58,0.23,0.74,-0.04,-10.22,0.47,-1.91,0,0,0,-9.5,0.91,-2.24,12.0895063877106
,0,0.35,0.71,-0.22,0.57,0.33,0.84,-0.08,-10.29,0.25,-2.68,0,0,0,-9.46,0.88,-2.4,12.1055524349213
,0,0.35,0.71,-0.22,0.57,0.37,0.9,-0.12,-10.39,0.31,-2.33,0,0,0,-9.42,0.84,-2.57,12.1213283538818
,0,0.36,0.72,-0.22,0.56,0.47,1,-0.2,-10.09,0.93,-2.55,0,0,0,-9.4,0.81,-2.67,12.1397092342377
,0,0.36,0.72,-0.22,0.55,0.49,1.06,-0.28,-9.84,1.53,-2.81,0,0,0,-9.34,0.74,-2.86,12.1560115814209
,0,0.36,0.73,-0.22,0.54,0.46,1.14,-0.31,-10.43,2.24,-2.16,0,0,0,-9.28,0.65,-3.08,12.1715638637543
,0,0.37,0.73,-0.23,0.53,0.61,1.25,-0.42,-10.98,3.08,-2.1,0,0,0,-9.25,0.59,-3.19,12.1897044181824
,0,0.37,0.74,-0.23,0.52,0.58,1.33,-0.45,-11.48,1.64,-1.79,0,0,0,-9.17,0.47,-3.43,12.205977678299
,0,0.37,0.74,-0.23,0.51,0.62,1.44,-0.47,-12.23,0.55,-0.62,0,0,0,-9.07,0.34,-3.7,12.2217979431152
,0,0.37,0.75,-0.23,0.49,0.97,1.57,-0.52,-12.36,0.24,-1.47,0,0,0,-9.01,0.26,-3.84,12.2397804260254
,0,0.38,0.75,-0.24,0.48,1.29,1.78,-0.58,-14.6,-1.63,1.28,0,0,0,-8.88,0.07,-4.15,12.2559354305267
,0,0.39,0.76,-0.25,0.46,1.55,1.82,-0.59,-14.68,-0.92,1.13,0,0,0,-8.73,-0.17,-4.46,12.2719023227692
,0,0.4,0.77,-0.26,0.44,2.19,1.92,-0.53,-14.24,-0.55,0.91,0,0,0,-8.64,-0.31,-4.62,12.2905337810516
,0,0.4,0.77,-0.26,0.42,2.47,2.07,-0.57,-13.22,0.98,-1.64,0,0,0,-8.45,-0.62,-4.93,12.3067872524261
,0,0.41,0.77,-0.28,0.39,2.53,2.18,-0.64,-14.24,2.07,-3.76,0,0,0,-8.21,-0.98,-5.26,12.3218629360199
,0,0.42,0.78,-0.28,0.37,1.94,2.36,-0.85,-13.18,1.07,-2.48,0,0,0,-8.08,-1.15,-5.42,12.3402047157288
,0,0.42,0.78,-0.29,0.35,1.74,2.23,-0.8,-11.05,1.68,-6.05,0,0,0,-7.81,-1.46,-5.73,12.3566250801086
,0,0.43,0.79,-0.29,0.33,1.71,2.14,-0.75,-9.48,-0.55,-9.8,0,0,0,-7.54,-1.75,-6,12.3721604347229
,0,0.43,0.8,-0.29,0.31,0.87,2.1,-0.69,-8.94,-1.29,-6.29,0,0,0,-7.41,-1.86,-6.14,12.3900492191315
,0,0.43,0.8,-0.29,0.3,0.27,1.52,-0.41,-8.91,0.73,-0.74,0,0,0,-7.18,-1.98,-6.36,12.40642619133
,0,0.43,0.8,-0.29,0.29,-0.03,1.11,-0.17,-6.09,1.25,-1.2,0,0,0,-7.07,-1.99,-6.49,12.4222807884216
,0,0.44,0.8,-0.29,0.29,0.01,0.36,0.2,-6.6,1.31,-0.26,0,0,0,-7.05,-1.98,-6.51,12.4403743743896
,0,0.44,0.8,-0.29,0.3,0.08,-0.39,0.47,-5.72,-0.46,-0.26,0,0,0,-7.09,-1.93,-6.49,12.4564688205719
,0,0.44,0.79,-0.29,0.3,0.2,-0.8,0.58,-5.07,-1.96,-1.44,0,0,0,-7.23,-1.88,-6.34,12.4717900753021
,0,0.44,0.78,-0.3,0.32,0.41,-1.48,0.69,-4.92,-1.59,-1.8,0,0,0,-7.33,-1.85,-6.23,12.4903631210327
,0,0.44,0.78,-0.3,0.32,0.49,-2.01,0.8,-4.72,-0.91,-2.07,0,0,0,-7.58,-1.8,-5.94,12.506813287735
,0,0.44,0.77,-0.31,0.34,0.36,-2.27,0.87,-5.39,0.97,-2.42,0,0,0,-7.88,-1.69,-5.57,12.522243976593
,0,0.44,0.75,-0.32,0.37,-0.15,-2.75,1.09,-5.8,1.26,-2.47,0,0,0,-8.04,-1.6,-5.36,12.5401184558868
,0,0.44,0.74,-0.32,0.38,-0.53,-3.12,1.31,-6.98,0.32,-3.15,0,0,0,-8.38,-1.36,-4.89,12.5571556091309
,0,0.44,0.73,-0.32,0.41,-0.66,-3.26,1.4,-7.85,-0.1,-3.95,0,0,0,-8.71,-1.05,-4.36,12.572642326355
,0,0.44,0.71,-0.33,0.45,-0.81,-3.52,1.56,-8.83,-0.19,-3.82,0,0,0,-8.87,-0.89,-4.06,12.5907726287842
,0,0.43,0.7,-0.33,0.47,-0.76,-3.73,1.71,-10.59,-1.12,-3.77,0,0,0,-9.16,-0.54,-3.43,12.6076369285583
,0,0.43,0.67,-0.33,0.5,-0.69,-3.83,1.73,-11.3,-1.2,-4.55,0,0,0,-9.41,-0.19,-2.74,12.6224040985107
,0,0.43,0.65,-0.34,0.53,-0.56,-4.05,1.69,-11.46,-1.25,-4.67,0,0,0,-9.51,-0.02,-2.37,12.6410300731659
,0,0.42,0.63,-0.34,0.55,-0.43,-4.18,1.69,-12.02,-0.81,-4.52,0,0,0,-9.67,0.3,-1.59,12.6574068069458
,0,0.42,0.61,-0.35,0.58,-0.36,-4.21,1.71,-12.24,0.49,-5.43,0,0,0,-9.75,0.64,-0.8,12.6724503040314
,0,0.41,0.58,-0.35,0.61,-0.54,-4.23,1.78,-12.38,0.51,-5.83,0,0,0,-9.75,0.98,0,12.6901822090149
,0,0.4,0.56,-0.35,0.63,-0.95,-4.06,1.76,-12.57,0.56,-6.31,0,0,0,-9.73,1.14,0.39,12.7071783542633
,0,0.39,0.54,-0.35,0.66,-1.18,-3.9,1.69,-11.86,0.64,-7.25,0,0,0,-9.63,1.44,1.14,12.7227311134338
,0,0.38,0.51,-0.34,0.69,-1.58,-3.45,1.59,-11.51,-0.85,-9.36,0,0,0,-9.49,1.68,1.8,12.7409181594849
,0,0.37,0.51,-0.34,0.7,-1.71,-2.78,1.35,-10.64,-2.49,-9.65,0,0,0,-9.41,1.77,2.08,12.7574121952057
,0,0.36,0.49,-0.33,0.72,-1.66,-2.37,1.2,-7.47,-2.13,-9.5,0,0,0,-9.28,1.9,2.52,12.772712469101
,0,0.35,0.48,-0.32,0.73,-1.25,-1.42,0.86,-7.12,-2.23,-9.86,0,0,0,-9.19,1.98,2.78,12.7910351753235
,0,0.35,0.48,-0.32,0.74,-0.83,-0.37,0.46,-5.52,-0.83,-11.03,0,0,0,-9.17,1.99,2.83,12.8081881999969
,0,0.35,0.49,-0.31,0.74,-0.67,0.21,0.23,-5.82,-0.15,-10.49,0,0,0,-9.19,1.97,2.76,12.8230059146881
,0,0.34,0.51,-0.31,0.73,-0.96,1.33,-0.33,-10.3,4.09,-2.81,0,0,0,-9.29,1.82,2.54,12.8405566215515
,0,0.33,0.52,-0.3,0.73,-1.57,1.86,-0.47,-17.9,-2.18,33.08,0,0,0,-9.34,1.74,2.4,12.8580422401428
,0,0.34,0.52,-0.3,0.72,0.05,1.3,-0.07,-12.62,-2.9,1.49,0,0,0,-9.39,1.72,2.2,12.8730146884918
,0,0.34,0.54,-0.29,0.72,-0.43,1.22,-0.23,-12.05,-2.31,1,0,0,0,-9.46,1.64,1.96,12.8913068771362
,0,0.34,0.54,-0.29,0.71,-0.02,1.48,-0.48,-10.84,-0.27,1.08,0,0,0,-9.49,1.6,1.83,12.9078271389008
,0,0.34,0.55,-0.29,0.7,0.34,1.6,-0.31,-10.07,1.51,-1.77,0,0,0,-9.56,1.54,1.53,12.9228513240814
,0,0.34,0.56,-0.29,0.69,0.11,1.54,-0.28,-9.28,1.73,-3.85,0,0,0,-9.61,1.48,1.24,12.9409117698669
,0,0.34,0.57,-0.28,0.69,-0.9,1.67,-0.48,-9.01,4.47,-1.98,0,0,0,-9.63,1.42,1.1,12.9577131271362
,0,0.34,0.59,-0.27,0.68,-1.13,1.73,-0.38,-10.09,1,-1.64,0,0,0,-9.67,1.34,0.82,12.9726157188416
,0,0.33,0.6,-0.26,0.68,-1.35,1.45,-0.2,-10.74,0.53,-0.2,0,0,0,-9.7,1.29,0.59,12.9906258583069
,0,0.33,0.6,-0.26,0.68,-0.7,1.04,-0.11,-10.29,-0.64,0.08,0,0,0,-9.7,1.27,0.51,13.0083281993866
,0,0.33,0.61,-0.26,0.67,0.05,0.89,-0.06,-10.24,0.35,-0.83,0,0,0,-9.71,1.26,0.34,13.0229623317719
,0,0.33,0.62,-0.26,0.67,0.21,0.93,-0.07,-9.78,0.78,-1.21,0,0,0,-9.72,1.25,0.15,13.0409641265869
,0,0.33,0.62,-0.25,0.66,0.28,1.09,-0.09,-9.92,1.14,-2.49,0,0,0,-9.72,1.24,0.05,13.0573968887329
,0,0.34,0.63,-0.25,0.65,0.13,1.16,-0.1,-10.16,1.59,-1.71,0,0,0,-9.72,1.22,-0.16,13.0730581283569
,0,0.34,0.64,-0.25,0.65,-0.11,1.1,-0.09,-9.52,1.28,-3.01,0,0,0,-9.72,1.2,-0.36,13.0909781455994
,0,0.34,0.64,-0.25,0.64,-0.03,0.97,-0.11,-9.65,1.92,-2.1,0,0,0,-9.72,1.19,-0.45,13.1081504821777
,0,0.34,0.64,-0.25,0.64,0.04,0.9,-0.11,-10.41,1.43,-1.69,0,0,0,-9.71,1.17,-0.62,13.1226093769073
,0,0.34,0.65,-0.24,0.63,-0.06,0.79,-0.13,-10.42,1.11,-1.58,0,0,0,-9.7,1.15,-0.76,13.1415376663208
,0,0.34,0.65,-0.24,0.63,-0.2,0.68,-0.14,-10.41,0.6,-1.11,0,0,0,-9.7,1.14,-0.82,13.1583662033081
,0,0.34,0.66,-0.24,0.63,-0.29,0.59,-0.07,-10.03,1.25,-1.17,0,0,0,-9.69,1.12,-0.93,13.1735351085663
,0,0.34,0.66,-0.23,0.63,-0.34,0.54,-0.03,-9.74,0.54,-1.47,0,0,0,-9.68,1.13,-1.02,13.191415309906
,0,0.34,0.66,-0.23,0.63,-0.19,0.47,-0.01,-9.6,0.71,-1.21,0,0,0,-9.68,1.13,-1.06,13.2086327075958
,0,0.34,0.67,-0.23,0.62,0.03,0.43,0,-8.94,0.99,-2.56,0,0,0,-9.67,1.13,-1.14,13.2234320640564
,0,0.34,0.67,-0.23,0.62,0.06,0.44,0.01,-8.81,1.08,-2.96,0,0,0,-9.66,1.12,-1.23,13.2413988113403
,0,0.34,0.67,-0.23,0.62,-0.03,0.51,-0.04,-9.19,1.12,-2.61,0,0,0,-9.65,1.12,-1.28,13.2589550018311
,0,0.34,0.67,-0.23,0.61,-0.08,0.6,-0.04,-9.27,1.24,-2.77,0,0,0,-9.64,1.12,-1.38,13.2736728191376
,0,0.34,0.68,-0.23,0.61,-0.13,0.65,-0.08,-9.7,1.43,-1.77,0,0,0,-9.62,1.1,-1.5,13.2919161319733
,0,0.34,0.68,-0.22,0.61,-0.05,0.67,-0.1,-9.74,1.51,-1.84,0,0,0,-9.61,1.09,-1.56,13.3091089725494
,0,0.34,0.68,-0.22,0.6,-0.05,0.66,-0.13,-10.28,1.08,-0.91,0,0,0,-9.6,1.07,-1.68,13.324348449707
,0,0.34,0.69,-0.22,0.6,0.03,0.64,-0.12,-10.1,1.16,-1.59,0,0,0,-9.58,1.05,-1.8,13.3418936729431
,0,0.34,0.69,-0.22,0.6,0.02,0.61,-0.11,-9.99,1.09,-1.48,0,0,0,-9.57,1.04,-1.85,13.3589532375336
,0,0.35,0.69,-0.22,0.59,0.05,0.6,-0.08,-10.04,0.76,-2.32,0,0,0,-9.55,1.02,-1.97,13.3743612766266
,0,0.35,0.7,-0.22,0.59,0.08,0.62,-0.07,-9.99,0.57,-2.42,0,0,0,-9.52,1,-2.09,13.3915226459503
,0,0.35,0.7,-0.22,0.59,0.21,0.68,-0.08,-10.29,0.12,-2.63,0,0,0,-9.51,0.99,-2.15,13.4094455242157
,0,0.35,0.7,-0.22,0.58,0.29,0.78,-0.09,-10.25,0.19,-2.95,0,0,0,-9.48,0.96,-2.29,13.4255225658417
,0,0.35,0.71,-0.22,0.57,0.29,0.82,-0.11,-10.13,0.3,-2.78,0,0,0,-9.44,0.93,-2.45,13.443014383316
,0,0.35,0.71,-0.22,0.57,0.35,0.89,-0.15,-10.02,0.76,-3.19,0,0,0,-9.42,0.91,-2.54,13.4594023227692
,0,0.36,0.72,-0.22,0.56,0.4,0.96,-0.2,-10.21,1.21,-2.37,0,0,0,-9.38,0.85,-2.72,13.4748797416687
,0,0.36,0.72,-0.22,0.55,0.46,0.99,-0.22,-10.05,1.49,-2.79,0,0,0,-9.33,0.78,-2.91,13.4925830364227
,0,0.36,0.72,-0.22,0.55,0.55,1.05,-0.26,-9.59,1.41,-2.05,0,0,0,-9.3,0.74,-3.01,13.5097222328186
,0,0.37,0.73,-0.22,0.53,0.78,1.23,-0.38,-10.63,2.61,-0.45,0,0,0,-9.23,0.64,-3.23,13.5247569084167
,0,0.37,0.74,-0.23,0.52,0.78,1.24,-0.39,-9.89,2,-2.18,0,0,0,-9.15,0.51,-3.46,13.5426504611969
,0,0.37,0.74,-0.23,0.51,0.8,1.47,-0.51,-11.86,0.94,-0.48,0,0,0,-9.1,0.44,-3.6,13.5597996711731
,0,0.38,0.75,-0.23,0.5,1.17,1.63,-0.58,-13.81,-1.51,0.22,0,0,0,-8.99,0.26,-3.88,13.5756769180298
,0,0.38,0.75,-0.24,0.48,1.41,1.78,-0.6,-14.69,-1.47,1.39,0,0,0,-8.85,0.04,-4.2,13.592399597168
,0,0.39,0.76,-0.25,0.47,2.09,1.85,-0.6,-14.71,-0.62,0.96,0,0,0,-8.78,-0.09,-4.36,13.6099514961243
,0,0.4,0.76,-0.26,0.44,2.34,1.96,-0.64,-13.7,-0.11,0.22,0,0,0,-8.6,-0.4,-4.67,13.625972032547
,0,0.41,0.77,-0.27,0.41,2.44,2.01,-0.65,-12.55,2.16,-4.04,0,0,0,-8.4,-0.74,-4.98,13.6426198482513
,0,0.41,0.77,-0.28,0.4,2.6,2.24,-0.76,-12.96,3.04,-4.58,0,0,0,-8.29,-0.93,-5.14,13.6600461006165
,0,0.42,0.78,-0.29,0.37,1.69,2.23,-0.88,-12.01,1.08,-2.07,0,0,0,-8.04,-1.27,-5.46,13.6761286258698
,0,0.43,0.78,-0.29,0.35,1.74,2.09,-0.79,-10.8,0.09,-4.53,0,0,0,-7.8,-1.59,-5.72,13.6929626464844
,0,0.43,0.78,-0.3,0.32,2.18,1.93,-0.71,-9.74,-0.83,-7.53,0,0,0,-7.68,-1.76,-5.83,13.7101490497589
,0,0.44,0.79,-0.31,0.31,1.29,1.89,-0.64,-8.39,-2.06,-7.83,0,0,0,-7.43,-2.04,-6.05,13.7261316776276
,0,0.44,0.79,-0.31,0.3,1.09,1.64,-0.52,-8.36,1.51,-0.73,0,0,0,-7.24,-2.2,-6.23,13.7427611351013
,0,0.44,0.79,-0.31,0.29,0.34,0.91,-0.04,-7.05,1.37,-0.65,0,0,0,-7.18,-2.22,-6.28,13.7600095272064
,0,0.45,0.79,-0.31,0.29,0.13,0.24,0.33,-5.45,0.81,-1.36,0,0,0,-7.14,-2.21,-6.33,13.7760713100433
,0,0.45,0.79,-0.31,0.29,-0.05,0.01,0.42,-5.35,1.29,1.19,0,0,0,-7.19,-2.14,-6.31,13.7929441928864
,0,0.45,0.78,-0.31,0.3,0.11,-0.8,0.71,-5.18,0.32,-0.65,0,0,0,-7.25,-2.1,-6.25,13.810507774353
,0,0.45,0.78,-0.31,0.31,0.16,-1.42,0.9,-5.35,-0.91,-1.57,0,0,0,-7.44,-1.99,-6.06,13.8265895843506
,0,0.46,0.77,-0.32,0.32,0.12,-1.69,0.94,-5.62,-1.09,-1.44,0,0,0,-7.68,-1.87,-5.79,13.8431949615479
,0,0.46,0.75,-0.32,0.34,0.18,-2.16,1.1,-6.08,-0.32,-2.1,0,0,0,-7.82,-1.79,-5.62,13.8607044219971
,0,0.46,0.75,-0.33,0.35,-0.15,-2.63,1.27,-6.74,0.26,-2.71,0,0,0,-8.13,-1.6,-5.24,13.877729177475
,0,0.46,0.73,-0.33,0.38,-0.38,-2.85,1.37,-7.69,-0.31,-2.7,0,0,0,-8.45,-1.33,-4.78,13.8934605121613
,0,0.46,0.71,-0.34,0.41,-0.56,-3.22,1.55,-8.01,-0.5,-2.98,0,0,0,-8.62,-1.17,-4.52,13.910692691803
,0,0.45,0.7,-0.34,0.43,-0.51,-3.45,1.69,-9.39,-0.86,-3.57,0,0,0,-8.93,-0.85,-3.95,13.9278059005737
,0,0.45,0.68,-0.34,0.46,-0.46,-3.58,1.76,-10.2,-1.06,-3.57,0,0,0,-9.21,-0.5,-3.32,13.943785905838
,0,0.45,0.66,-0.35,0.49,-0.44,-3.82,1.83,-11.11,-1.33,-3.82,0,0,0,-9.33,-0.32,-2.98,13.9610793590546
,0,0.45,0.64,-0.35,0.51,-0.44,-4.01,1.82,-11.35,-1.01,-3.88,0,0,0,-9.54,0.02,-2.25,13.9776151180267
,0,0.44,0.62,-0.36,0.54,-0.46,-4.09,1.82,-12.48,-0.46,-4.27,0,0,0,-9.68,0.38,-1.48,13.993903875351
,0,0.43,0.59,-0.36,0.58,-0.69,-4.2,1.85,-12.55,-0.34,-4.35,0,0,0,-9.72,0.56,-1.09,14.0117259025574
,0,0.43,0.58,-0.36,0.6,-1.02,-4.14,1.82,-12.22,0.04,-5.89,0,0,0,-9.75,0.92,-0.29,14.028666973114
,0,0.42,0.55,-0.36,0.63,-1.53,-3.86,1.68,-11.72,-0.15,-6.69,0,0,0,-9.71,1.24,0.48,14.0445463657379
,0,0.4,0.53,-0.35,0.66,-1.83,-3.66,1.58,-11.6,-0.05,-7.07,0,0,0,-9.67,1.38,0.84,14.0616250038147
,0,0.39,0.52,-0.35,0.67,-2.17,-3.09,1.35,-11.26,-1.49,-8.88,0,0,0,-9.55,1.59,1.51,14.0787818431854
,0,0.37,0.51,-0.34,0.7,-2.1,-2.43,1.02,-9.48,-1.89,-9.45,0,0,0,-9.43,1.72,2.06,14.094562292099
,0,0.36,0.5,-0.33,0.72,-1.94,-2.02,0.85,-8.53,-1.67,-9.89,0,0,0,-9.37,1.76,2.27,14.1116354465485
,0,0.35,0.49,-0.33,0.72,-1.57,-1.06,0.52,-6.93,-1.23,-10.3,0,0,0,-9.29,1.79,2.57,14.1286358833313
,0,0.34,0.5,-0.32,0.73,-1.02,0.03,0.22,-5.65,-0.75,-10.97,0,0,0,-9.26,1.78,2.65,14.144303560257
,0,0.34,0.5,-0.32,0.73,-0.8,0.6,0.02,-5.71,-0.81,-10.93,0,0,0,-9.31,1.73,2.52,14.1617321968079
,0,0.34,0.51,-0.31,0.72,-0.78,1.55,-0.41,-9.48,0.31,-5.25,0,0,0,-9.35,1.67,2.4,14.1796300411224
,0,0.33,0.53,-0.31,0.72,-1.01,1.73,-0.46,-17.14,-0.7,32.73,0,0,0,-9.45,1.52,2.12,14.194895029068
,0,0.34,0.54,-0.31,0.71,0.51,1.14,-0.05,-14.06,-2.76,-2.52,0,0,0,-9.49,1.52,1.91,14.2118146419525
,0,0.34,0.54,-0.31,0.71,0.26,1.14,-0.22,-12.83,-1.27,0.41,0,0,0,-9.52,1.5,1.8,14.2298448085785
,0,0.34,0.55,-0.3,0.7,-0.19,1.37,-0.48,-10.95,-0.63,-0.4,0,0,0,-9.57,1.41,1.56,14.2456860542297
,0,0.35,0.56,-0.3,0.69,0.03,1.41,-0.42,-10.53,1.46,0.26,0,0,0,-9.62,1.35,1.29,14.2626645565033
,0,0.35,0.57,-0.3,0.69,-0.01,1.43,-0.21,-9.62,1.48,-4.8,0,0,0,-9.64,1.33,1.16,14.2799286842346
,0,0.34,0.58,-0.29,0.68,-0.98,1.41,-0.26,-10.3,2.97,-2.25,0,0,0,-9.68,1.27,0.91,14.2966694831848
,0,0.34,0.59,-0.28,0.67,-1.05,1.34,-0.18,-10.17,0.77,-1.71,0,0,0,-9.7,1.22,0.69,14.3131039142609
,0,0.34,0.6,-0.28,0.67,-0.97,1.08,-0.15,-10.48,0.72,-0.41,0,0,0,-9.71,1.2,0.6,14.3305654525757
,0,0.33,0.6,-0.27,0.67,-0.78,0.75,-0.07,-9.96,0.4,-0.43,0,0,0,-9.72,1.17,0.46,14.3462374210358
,0,0.33,0.61,-0.27,0.67,-0.69,0.68,-0.01,-9.27,-0.78,-1.89,0,0,0,-9.72,1.17,0.34,14.3634252548218
,0,0.34,0.61,-0.27,0.66,0.18,0.81,-0.05,-9.88,0,-1.53,0,0,0,-9.73,1.16,0.27,14.3809986114502
,0,0.34,0.62,-0.27,0.66,0.38,0.9,-0.06,-9.84,1.11,-0.82,0,0,0,-9.73,1.15,0.09,14.3975939750671
,0,0.34,0.62,-0.27,0.65,0.37,0.94,-0.06,-10.02,1.98,-1.19,0,0,0,-9.73,1.14,-0.09,14.4135644435883
,0,0.35,0.63,-0.26,0.65,0.09,0.99,-0.1,-10.07,2.06,-1.19,0,0,0,-9.73,1.13,-0.18,14.4315838813782
,0,0.35,0.63,-0.26,0.64,-0,0.95,-0.11,-9.66,2.72,-1.77,0,0,0,-9.73,1.11,-0.36,14.4484086036682
,0,0.35,0.64,-0.26,0.64,-0.06,0.82,-0.14,-10.12,1.87,-0.81,0,0,0,-9.73,1.09,-0.52,14.4643561840057
,0,0.35,0.64,-0.26,0.63,-0.15,0.76,-0.14,-10.16,1.47,-1.03,0,0,0,-9.72,1.08,-0.59,14.4814176559448
,0,0.35,0.65,-0.26,0.63,-0.25,0.69,-0.19,-10.3,0.64,-1.16,0,0,0,-9.72,1.05,-0.72,14.4985399246216
,0,0.35,0.65,-0.25,0.63,-0.47,0.66,-0.16,-9.54,1.59,-2.24,0,0,0,-9.71,1.02,-0.84,14.5143978595734
,0,0.34,0.66,-0.25,0.62,-0.62,0.67,-0.14,-9.62,1.22,-1.43,0,0,0,-9.71,1.01,-0.9,14.5315415859222
,0,0.34,0.66,-0.24,0.62,-0.61,0.64,-0.08,-9.63,0.02,-1.92,0,0,0,-9.7,1.01,-1.01,14.5482885837555
,0,0.34,0.66,-0.24,0.62,-0.27,0.6,-0.07,-9.35,-0.1,-1.7,0,0,0,-9.69,1,-1.12,14.5643177032471
,0,0.34,0.67,-0.24,0.62,-0.08,0.61,-0.06,-9.38,0.24,-1.92,0,0,0,-9.68,0.99,-1.17,14.5817363262177
,0,0.34,0.67,-0.24,0.61,-0.09,0.64,-0.09,-9.24,0.69,-2.12,0,0,0,-9.67,0.98,-1.29,14.5979325771332
,0,0.34,0.68,-0.23,0.61,-0,0.7,-0.08,-9.53,1.18,-1.79,0,0,0,-9.65,0.97,-1.42,14.6144464015961
,0,0.34,0.68,-0.23,0.61,-0.1,0.67,-0.08,-9.34,0.24,-2.17,0,0,0,-9.64,0.96,-1.48,14.6317191123962
,0,0.34,0.68,-0.23,0.6,0,0.67,-0.07,-9.82,1.18,-1.57,0,0,0,-9.62,0.95,-1.61,14.6480977535248
,0,0.34,0.69,-0.23,0.6,0.07,0.67,-0.06,-9.85,1.05,-1.43,0,0,0,-9.6,0.93,-1.74,14.664315700531
,0,0.35,0.69,-0.23,0.59,0.06,0.67,-0.07,-9.74,0.89,-1.95,0,0,0,-9.59,0.93,-1.8,14.6816210746765
,0,0.35,0.69,-0.23,0.59,0.04,0.71,-0.08,-9.82,0.64,-2.2,0,0,0,-9.57,0.91,-1.93,14.6981379985809
,0,0.35,0.7,-0.23,0.59,0.1,0.78,-0.09,-9.9,0.54,-2.33,0,0,0,-9.54,0.89,-2.07,14.7144820690155
,0,0.35,0.7,-0.23,0.58,0.14,0.83,-0.1,-10.05,0.31,-2.53,0,0,0,-9.52,0.88,-2.15,14.7317414283752
,0,0.35,0.7,-0.23,0.58,0.34,0.94,-0.09,-10.31,0.69,-2.49,0,0,0,-9.48,0.85,-2.32,14.748114824295
,0,0.36,0.71,-0.23,0.57,0.4,0.97,-0.09,-10.8,0.19,-2.12,0,0,0,-9.44,0.81,-2.51,14.7644071578979
,0,0.36,0.71,-0.23,0.56,0.54,1.09,-0.16,-11.01,0.83,-1.92,0,0,0,-9.41,0.78,-2.61,14.7817213535309
,0,0.36,0.72,-0.23,0.55,0.45,1.13,-0.19,-10.78,0.12,-2.88,0,0,0,-9.36,0.72,-2.82,14.7972116470337
,0,0.36,0.72,-0.23,0.54,0.46,1.16,-0.23,-10.61,0.31,-2.59,0,0,0,-9.29,0.65,-3.04,14.8141379356384
,0,0.37,0.73,-0.23,0.53,0.57,1.18,-0.3,-10.35,0.22,-2.76,0,0,0,-9.26,0.6,-3.15,14.831604719162
,0,0.37,0.73,-0.23,0.52,0.63,1.23,-0.41,-11.05,1.98,-2.58,0,0,0,-9.19,0.49,-3.38,14.8479735851288
,0,0.37,0.74,-0.23,0.51,0.62,1.25,-0.42,-11.27,1.1,-2.02,0,0,0,-9.1,0.38,-3.61,14.8643000125885
,0,0.38,0.74,-0.24,0.5,0.75,1.37,-0.42,-11.67,0.45,-1.3,0,0,0,-9.06,0.31,-3.73,14.8821482658386
,0,0.38,0.75,-0.24,0.49,1.23,1.49,-0.47,-12.15,-0.1,-0.34,0,0,0,-8.95,0.15,-3.99,14.8977108001709
,0,0.39,0.75,-0.25,0.47,1.54,1.71,-0.54,-14.04,-0.65,1,0,0,0,-8.82,-0.05,-4.28,14.914580821991
,0,0.4,0.76,-0.25,0.45,1.75,1.76,-0.53,-14.4,-0.17,1.15,0,0,0,-8.74,-0.17,-4.43,14.9318406581879
,0,0.4,0.76,-0.26,0.44,2.12,1.89,-0.52,-13.61,-0.25,0.16,0,0,0,-8.57,-0.43,-4.72,14.9476256370544
,0,0.41,0.77,-0.27,0.41,2.35,2.12,-0.59,-13.33,1.43,-1.64,0,0,0,-8.37,-0.74,-5.04,14.9650599956512
,0,0.42,0.77,-0.28,0.38,2.36,2.26,-0.71,-13.69,2.16,-3.36,0,0,0,-8.26,-0.92,-5.2,14.982536315918
,0,0.42,0.78,-0.28,0.37,1.62,2.25,-0.88,-13.1,1.39,-1.87,0,0,0,-8,-1.25,-5.52,14.9982368946075
,0,0.43,0.78,-0.29,0.35,1.65,2.04,-0.76,-10.51,1.24,-4.99,0,0,0,-7.75,-1.54,-5.79,15.014876127243
,0,0.43,0.79,-0.29,0.32,1.51,2.01,-0.78,-10.2,0.1,-7.42,0,0,0,-7.62,-1.69,-5.92,15.032731294632
,0,0.43,0.79,-0.3,0.31,0.89,1.82,-0.7,-8.36,-1.61,-7.21,0,0,0,-7.38,-1.91,-6.16,15.0487322807312
,0,0.44,0.8,-0.3,0.3,0.46,1.3,-0.52,-7.99,-0.15,-5.06,0,0,0,-7.18,-2.07,-6.34,15.0654904842377
,0,0.44,0.8,-0.29,0.29,-0.01,0.92,-0.3,-7.48,1.45,-0.61,0,0,0,-7.11,-2.09,-6.41,15.0826773643494
,0,0.44,0.8,-0.29,0.29,-0.29,0.25,0.12,-6.46,0.53,-1.39,0,0,0,-7.06,-2.06,-6.47,15.0985994338989
,0,0.44,0.8,-0.29,0.3,-0.37,-0.38,0.39,-5.75,0.81,1.47,0,0,0,-7.1,-1.97,-6.46,15.115471124649
,0,0.44,0.79,-0.29,0.31,-0.09,-0.79,0.53,-5.48,0.24,0.17,0,0,0,-7.16,-1.93,-6.4,15.1324772834778
,0,0.44,0.79,-0.29,0.31,-0.01,-1.51,0.69,-4.88,-1.37,-1.5,0,0,0,-7.35,-1.84,-6.22,15.148669719696
,0,0.44,0.78,-0.3,0.33,0.17,-2.07,0.82,-5.13,-1.73,-1.41,0,0,0,-7.6,-1.74,-5.93,15.1653327941895
,0,0.44,0.77,-0.31,0.35,0.17,-2.34,0.89,-5.32,-1.31,-1.63,0,0,0,-7.75,-1.68,-5.75,15.1827552318573
,0,0.44,0.76,-0.31,0.36,0.01,-2.86,1.09,-6.02,0.04,-2.33,0,0,0,-8.08,-1.53,-5.33,15.1981389522552
,0,0.44,0.74,-0.32,0.39,-0.39,-3.27,1.3,-7.21,0.43,-2.68,0,0,0,-8.43,-1.3,-4.83,15.2154543399811
,0,0.44,0.73,-0.32,0.42,-0.51,-3.44,1.4,-7.64,0.04,-3.1,0,0,0,-8.6,-1.16,-4.56,15.2330937385559
,0,0.43,0.72,-0.33,0.44,-0.58,-3.7,1.57,-8.85,-0.47,-3.94,0,0,0,-8.93,-0.85,-3.95,15.2482998371124
,0,0.43,0.69,-0.33,0.47,-0.65,-3.87,1.7,-10.04,-0.96,-3.91,0,0,0,-9.22,-0.51,-3.28,15.2656979560852
,0,0.43,0.67,-0.33,0.51,-0.67,-4.02,1.73,-10.64,-1.13,-3.87,0,0,0,-9.35,-0.34,-2.93,15.2827639579773
,0,0.42,0.66,-0.34,0.53,-0.58,-4.23,1.74,-11.75,-0.83,-4.4,0,0,0,-9.56,0,-2.16,15.2986533641815
,0,0.42,0.63,-0.34,0.56,-0.77,-4.38,1.73,-12.53,-0.38,-4.83,0,0,0,-9.7,0.35,-1.35,15.3154094219208
,0,0.41,0.6,-0.34,0.6,-0.88,-4.39,1.73,-12.82,-0.15,-5.46,0,0,0,-9.74,0.52,-0.93,15.3326306343079
,0,0.4,0.59,-0.34,0.61,-1.22,-4.31,1.65,-12.92,0.12,-6.06,0,0,0,-9.76,0.85,-0.1,15.3482205867767
,0,0.39,0.56,-0.34,0.65,-1.66,-4.09,1.56,-12.88,1.14,-7.29,0,0,0,-9.71,1.14,0.71,15.3655908107758
,0,0.37,0.54,-0.33,0.68,-1.91,-3.9,1.5,-12.47,0.76,-7.8,0,0,0,-9.66,1.26,1.1,15.3827900886536
,0,0.36,0.53,-0.33,0.69,-2.07,-3.27,1.34,-11.05,-0.18,-10.19,0,0,0,-9.52,1.46,1.79,15.3978824615479
,0,0.34,0.51,-0.32,0.72,-1.87,-2.38,1.19,-9.78,-1.84,-11.63,0,0,0,-9.38,1.61,2.33,15.4161179065704
,0,0.33,0.5,-0.31,0.73,-1.67,-1.88,1.05,-8.01,-3.7,-11.55,0,0,0,-9.32,1.66,2.53,15.4330196380615
,0,0.33,0.5,-0.31,0.74,-0.86,-0.77,0.6,-7.16,-3.24,-10.69,0,0,0,-9.24,1.74,2.75,15.4477112293243
,0,0.33,0.5,-0.31,0.74,-0.18,0.28,0.14,-5.78,0.45,-10.6,0,0,0,-9.24,1.77,2.76,15.4655735492706
,0,0.33,0.51,-0.3,0.73,-0.15,0.85,-0.09,-5.38,0.9,-10.83,0,0,0,-9.26,1.75,2.68,15.4828195571899
,0,0.33,0.52,-0.3,0.73,-1.05,1.82,-0.56,-13.36,4.5,5.33,0,0,0,-9.35,1.64,2.41,15.4984927177429
,0,0.33,0.53,-0.29,0.72,0.12,1.5,-0.11,-16.61,-2.86,4.48,0,0,0,-9.44,1.56,2.12,15.5161924362183
,0,0.33,0.54,-0.29,0.71,0.19,1.31,-0.05,-12.91,-1.95,1.39,0,0,0,-9.47,1.56,2,15.5330371856689
,0,0.33,0.55,-0.29,0.71,-0.03,1.45,-0.4,-11.39,-2.57,-1.34,0,0,0,-9.53,1.5,1.73,15.5481324195862
,0,0.34,0.56,-0.29,0.7,0.33,1.36,-0.28,-9.69,-0.43,-1.66,0,0,0,-9.58,1.45,1.47,15.5661098957062
,0,0.34,0.57,-0.29,0.69,0.63,1.36,-0.24,-9.98,0.96,-3.11,0,0,0,-9.62,1.41,1.2,15.5830590724945
,0,0.34,0.57,-0.29,0.69,-0.48,1.51,-0.32,-9.9,4.39,-2.03,0,0,0,-9.64,1.37,1.07,15.5980484485626
,0,0.34,0.59,-0.28,0.68,-1.31,1.31,-0.17,-9.72,2.43,-1.87,0,0,0,-9.68,1.31,0.84,15.6158273220062
,0,0.33,0.6,-0.27,0.68,-1.43,1.19,-0.1,-10.38,1.84,-0.51,0,0,0,-9.69,1.29,0.75,15.6331579685211
,0,0.33,0.6,-0.26,0.68,-0.9,0.8,-0.04,-10.64,-1,-0.05,0,0,0,-9.7,1.27,0.6,15.648021697998
,0,0.33,0.61,-0.26,0.68,-0.1,0.68,0.02,-9.68,-0.33,-1.19,0,0,0,-9.71,1.27,0.48,15.6658480167389
,0,0.33,0.61,-0.26,0.67,0.26,0.7,0.06,-9.09,0.25,-1.49,0,0,0,-9.71,1.27,0.41,15.68301653862
,0,0.33,0.61,-0.26,0.67,0.23,0.87,-0.01,-9.35,1.88,-1.74,0,0,0,-9.71,1.28,0.25,15.6987409591675
,0,0.34,0.62,-0.25,0.66,-0.01,0.89,-0.03,-9.97,1.57,-1.17,0,0,0,-9.72,1.27,0.07,15.7173788547516
,0,0.34,0.63,-0.25,0.66,0.03,0.91,-0.05,-9.71,0.74,-1.68,0,0,0,-9.72,1.26,-0.09,15.7343101501465
,0,0.34,0.63,-0.25,0.65,0.28,0.9,-0.09,-10.02,1.61,-1.09,0,0,0,-9.72,1.25,-0.18,15.748654127121
,0,0.34,0.63,-0.25,0.65,0.35,0.75,-0.06,-9.65,2.14,-1.64,0,0,0,-9.72,1.24,-0.34,15.7677142620087
,0,0.35,0.64,-0.25,0.64,0.26,0.72,-0.07,-10.19,1.68,-1.43,0,0,0,-9.71,1.22,-0.47,15.7843260765076
,0,0.35,0.64,-0.25,0.64,-0.02,0.65,-0.13,-10.52,1.44,-1.09,0,0,0,-9.71,1.21,-0.54,15.7994151115417
,0,0.34,0.64,-0.25,0.64,-0.27,0.61,-0.14,-10.26,0.34,-1.5,0,0,0,-9.71,1.19,-0.65,15.8165857791901
,0,0.34,0.65,-0.24,0.63,-0.27,0.61,-0.12,-10.21,0.66,-1.43,0,0,0,-9.7,1.17,-0.75,15.8329138755798
,0,0.34,0.65,-0.24,0.63,-0.25,0.55,-0.09,-9.65,0.9,-2.51,0,0,0,-9.7,1.16,-0.8,15.8484907150269
,0,0.34,0.65,-0.24,0.63,-0.01,0.55,-0.07,-9.52,0.75,-1.48,0,0,0,-9.69,1.15,-0.9,15.8672015666962
,0,0.35,0.66,-0.24,0.63,0.11,0.54,-0.05,-8.98,0.79,-2.1,0,0,0,-9.68,1.14,-1.01,15.8837518692017
,0,0.35,0.66,-0.24,0.62,0.24,0.59,-0.05,-9.35,1.39,-1.55,0,0,0,-9.68,1.13,-1.07,15.8987293243408
,0,0.35,0.66,-0.24,0.62,0.12,0.62,-0.04,-9.39,1.51,-1.77,0,0,0,-9.66,1.12,-1.19,15.9175202846527
,0,0.35,0.67,-0.24,0.61,0.03,0.62,-0.05,-9.44,1.71,-1.37,0,0,0,-9.65,1.11,-1.3,15.9339509010315
,0,0.35,0.67,-0.24,0.61,-0.04,0.62,-0.06,-9.73,1.26,-1.52,0,0,0,-9.64,1.11,-1.36,15.9491431713104
,0,0.35,0.67,-0.23,0.61,-0.11,0.6,-0.08,-9.66,1.09,-1.79,0,0,0,-9.63,1.09,-1.47,15.9675350189209
,0,0.35,0.68,-0.23,0.6,-0.09,0.64,-0.09,-9.79,1.2,-1.8,0,0,0,-9.61,1.08,-1.59,15.983998298645
,0,0.35,0.68,-0.23,0.6,-0.15,0.66,-0.13,-9.65,1.19,-1.79,0,0,0,-9.6,1.07,-1.65,15.9989936351776
,0,0.35,0.68,-0.23,0.6,-0.14,0.72,-0.17,-9.7,0.8,-2.31,0,0,0,-9.58,1.04,-1.77,16.0183262825012
,0,0.35,0.69,-0.23,0.59,-0.07,0.77,-0.17,-9.77,0.71,-2.44,0,0,0,-9.56,1.01,-1.92,16.0346188545227
,0,0.35,0.69,-0.23,0.59,0.1,0.85,-0.18,-10.41,0.59,-2.2,0,0,0,-9.54,0.99,-2,16.0495326519012
,0,0.35,0.7,-0.23,0.58,0.28,0.94,-0.16,-10.51,-0.04,-2.15,0,0,0,-9.51,0.95,-2.17,16.0687358379364
,0,0.36,0.7,-0.23,0.57,0.37,0.99,-0.18,-10.4,-0.25,-2.31,0,0,0,-9.47,0.9,-2.37,16.0848207473755
,0,0.36,0.71,-0.23,0.57,0.45,1.06,-0.25,-10.02,-0.11,-2.21,0,0,0,-9.44,0.87,-2.47,16.100124835968
,0,0.36,0.71,-0.23,0.56,0.59,1.14,-0.32,-10.16,0.94,-1.89,0,0,0,-9.39,0.78,-2.68,16.1188390254974
,0,0.36,0.72,-0.23,0.55,0.55,1.17,-0.34,-10.25,1.77,-2.21,0,0,0,-9.33,0.69,-2.91,16.1350650787354
,0,0.37,0.72,-0.23,0.54,0.5,1.27,-0.43,-10.36,1.43,-2.23,0,0,0,-9.3,0.64,-3.03,16.1502223014832
,0,0.37,0.73,-0.23,0.53,0.52,1.4,-0.5,-11.53,3.12,-1.68,0,0,0,-9.22,0.52,-3.28,16.1693665981293
,0,0.37,0.74,-0.23,0.52,0.51,1.43,-0.51,-11.21,2.23,-1.92,0,0,0,-9.13,0.39,-3.54,16.1850101947784
,0,0.37,0.74,-0.23,0.51,0.64,1.63,-0.57,-12.19,1.72,-0.67,0,0,0,-9.07,0.31,-3.69,16.2000856399536
,0,0.38,0.75,-0.23,0.49,0.77,1.79,-0.62,-12.96,1.08,-1.17,0,0,0,-8.95,0.15,-4,16.2199146747589
,0,0.38,0.76,-0.24,0.47,0.89,1.88,-0.62,-15.13,-0.82,1.53,0,0,0,-8.79,-0.03,-4.33,16.2355833053589
,0,0.38,0.76,-0.24,0.46,1.53,1.95,-0.59,-15.31,-0.92,1.19,0,0,0,-8.71,-0.14,-4.49,16.2505795955658
,0,0.39,0.77,-0.25,0.44,2.12,2.07,-0.53,-13.63,-0.98,0.15,0,0,0,-8.52,-0.41,-4.82,16.2703115940094
,0,0.4,0.77,-0.26,0.41,2.34,2.19,-0.57,-12.74,0.74,-2.89,0,0,0,-8.3,-0.74,-5.16,16.2857129573822
,0,0.41,0.78,-0.27,0.4,2.18,2.38,-0.8,-13.55,0.4,-2.75,0,0,0,-8.17,-0.92,-5.33,16.3008086681366
,0,0.41,0.78,-0.28,0.37,1.94,2.18,-0.78,-12.25,1.23,-2.47,0,0,0,-7.92,-1.25,-5.64,16.3205788135529
,0,0.42,0.79,-0.28,0.34,1.95,2.1,-0.75,-9.68,0.41,-10.11,0,0,0,-7.66,-1.56,-5.9,16.3355524539948
,0,0.42,0.79,-0.29,0.33,1.3,2.03,-0.63,-9.01,-0.33,-8.77,0,0,0,-7.54,-1.68,-6.03,16.3509166240692
,0,0.43,0.8,-0.29,0.31,0.83,1.66,-0.35,-7.81,-0.87,-3.56,0,0,0,-7.31,-1.85,-6.26,16.3704562187195
,0,0.43,0.8,-0.28,0.3,0.43,1.27,-0.21,-7.36,1.23,-1,0,0,0,-7.17,-1.9,-6.4,16.3856434822083
,0,0.43,0.8,-0.28,0.3,0.08,0.55,0.28,-7.2,1.51,-1.56,0,0,0,-7.14,-1.88,-6.44,16.4009432792664
,0,0.44,0.8,-0.28,0.3,-0.23,-0.16,0.53,-5.96,0.36,2.2,0,0,0,-7.15,-1.8,-6.45,16.4206929206848
,0,0.44,0.79,-0.28,0.31,0.02,-0.55,0.63,-5.3,-0.96,-1.53,0,0,0,-7.27,-1.71,-6.34,16.4361698627472
,0,0.44,0.79,-0.28,0.32,0.13,-1.29,0.73,-5.16,-1.32,-1.31,0,0,0,-7.36,-1.67,-6.25,16.450674533844
,0,0.44,0.78,-0.29,0.33,0.16,-1.59,0.77,-5.59,-0.95,-0.99,0,0,0,-7.57,-1.58,-6.02,16.4711530208588
,0,0.44,0.77,-0.3,0.35,0.03,-2.38,0.91,-5.46,-0.08,-2.13,0,0,0,-7.85,-1.46,-5.67,16.4860463142395
,0,0.44,0.76,-0.3,0.36,-0.17,-2.61,0.97,-5.6,0.24,-2.1,0,0,0,-8.01,-1.37,-5.48,16.5013380050659
,0,0.44,0.75,-0.31,0.39,-0.4,-2.84,1.03,-6.52,0.49,-2.5,0,0,0,-8.32,-1.17,-5.04,16.5214805603027
,0,0.44,0.73,-0.31,0.41,-0.64,-3.37,1.26,-7.07,-0.21,-2.84,0,0,0,-8.65,-0.92,-4.52,16.5368916988373
,0,0.44,0.73,-0.31,0.43,-0.64,-3.37,1.26,-8.12,-0.91,-3.49,0,0,0,-8.8,-0.79,-4.24,16.5526802539825
,0,0.43,0.71,-0.32,0.46,-0.54,-3.62,1.39,-9.25,-1,-3.79,0,0,0,-9.09,-0.51,-3.62,16.5722806453705
,0,0.43,0.68,-0.32,0.49,-0.51,-3.84,1.49,-10.71,-1.01,-4.02,0,0,0,-9.34,-0.21,-2.95,16.5891811847687
,0,0.42,0.66,-0.33,0.53,-0.64,-4.09,1.55,-11.36,-0.68,-4.09,0,0,0,-9.55,0.09,-2.22,16.6070773601532
,0,0.41,0.63,-0.33,0.56,-0.64,-4.09,1.55,-11.74,-0.02,-4.6,0,0,0,-9.62,0.25,-1.84,16.6240043640137
,0,0.41,0.62,-0.34,0.58,-0.74,-4.17,1.57,-12.11,0.32,-4.78,0,0,0,-9.73,0.56,-1.05,16.6412734985352
,0,0.4,0.59,-0.34,0.61,-1.04,-4.2,1.6,-12.41,1.12,-6.67,0,0,0,-9.76,0.87,-0.24,16.6591563224792
,0,0.39,0.57,-0.34,0.64,-1.27,-4.11,1.61,-12.11,0.96,-6.83,0,0,0,-9.72,1.17,0.54,16.675279378891
,0,0.37,0.54,-0.33,0.68,-1.91,-3.86,1.51,-12.28,0.64,-7.78,0,0,0,-9.67,1.3,0.93,16.6941230297089
,0,0.36,0.53,-0.32,0.69,-2.14,-3.46,1.39,-11.64,-0.68,-10.12,0,0,0,-9.54,1.51,1.65,16.7099280357361
,0,0.34,0.52,-0.32,0.72,-2.12,-3.15,1.3,-10.2,-1.67,-10.7,0,0,0,-9.39,1.66,2.26,16.7261509895325
,0,0.33,0.5,-0.31,0.74,-2.02,-2.36,1.08,-9.48,-1.89,-10.65,0,0,0,-9.32,1.71,2.5,16.7443852424622
,0,0.32,0.5,-0.3,0.75,-1.48,-1.46,0.83,-6.99,-2.86,-10.94,0,0,0,-9.2,1.78,2.86,16.760470867157
,0,0.32,0.49,-0.3,0.75,-1.12,-0.96,0.65,-5.89,-1.4,-11.86,0,0,0,-9.14,1.83,3.02,16.7759156227112
,0,0.32,0.5,-0.29,0.75,-0.5,0.15,0.26,-6.3,0.55,-11.2,0,0,0,-9.14,1.84,3.02,16.7940940856934
,0,0.32,0.5,-0.29,0.75,-0.61,1.27,-0.22,-10.93,4.34,-1,0,0,0,-9.2,1.79,2.86,16.8103222846985
,0,0.31,0.52,-0.28,0.74,-1.09,1.64,-0.57,-14.86,-1.59,-5.27,0,0,0,-9.31,1.64,2.59,16.8258998394012
,0,0.32,0.53,-0.28,0.74,0.53,1.25,0.01,-12.42,-2.05,-0.41,0,0,0,-9.34,1.65,2.47,16.8439207077026
,0,0.32,0.53,-0.28,0.73,0.28,1.19,-0.21,-10.46,-1.25,0.31,0,0,0,-9.39,1.65,2.25,16.8613209724426
,0,0.32,0.54,-0.28,0.72,0.35,1.19,-0.27,-9.76,0.06,0.43,0,0,0,-9.45,1.62,2.02,16.8761372566223
,0,0.33,0.55,-0.28,0.71,0.71,1.22,-0.21,-9.82,0.75,-0.46,0,0,0,-9.48,1.62,1.89,16.8938884735107
,0,0.33,0.55,-0.28,0.71,0.29,1.32,-0.2,-9.31,5.09,-3.99,0,0,0,-9.53,1.6,1.64,16.91020154953
,0,0.33,0.56,-0.28,0.7,-0.33,1.38,-0.26,-10,1.86,-2.02,0,0,0,-9.58,1.54,1.4,16.9261479377747
,0,0.33,0.58,-0.27,0.7,-1.01,1.33,-0.07,-10.14,1.31,-1.54,0,0,0,-9.6,1.52,1.29,16.943835735321
,0,0.33,0.58,-0.26,0.7,-1.03,1.03,-0.05,-10.82,-0.07,1.4,0,0,0,-9.62,1.48,1.12,16.9600827693939
,0,0.32,0.59,-0.25,0.7,-0.72,0.85,-0.01,-10.08,-0.1,-0.54,0,0,0,-9.64,1.48,0.99,16.9757447242737
,0,0.32,0.59,-0.25,0.69,-0.31,0.66,0.07,-9.65,0.38,-1.1,0,0,0,-9.64,1.48,0.93,16.9941966533661
,0,0.32,0.59,-0.25,0.69,-0.1,0.78,0.03,-9.84,2.21,-2.21,0,0,0,-9.65,1.49,0.8,17.0107080936432
,0,0.33,0.6,-0.25,0.69,-0.15,0.89,0.02,-10.12,0.45,-1.38,0,0,0,-9.67,1.49,0.63,17.0258460044861
,0,0.33,0.61,-0.24,0.68,-0.2,0.91,0,-9.82,0.17,-1.33,0,0,0,-9.67,1.49,0.55,17.0439713001251
,0,0.33,0.61,-0.24,0.68,0.27,0.86,-0.05,-9.65,1.13,-1.72,0,0,0,-9.68,1.48,0.38,17.0606727600098
,0,0.33,0.61,-0.24,0.67,0.43,0.84,-0.06,-10.27,2.17,-0.92,0,0,0,-9.69,1.47,0.21,17.0758023262024
,0,0.34,0.62,-0.24,0.67,0.48,0.81,-0.09,-10.25,2.27,-0.99,0,0,0,-9.69,1.46,0.13,17.0941398143768
,0,0.34,0.62,-0.24,0.66,0.25,0.77,-0.15,-10.24,1.48,-0.87,0,0,0,-9.69,1.44,-0.02,17.110919713974
,0,0.34,0.63,-0.24,0.66,0.15,0.79,-0.16,-9.78,1.59,-1.01,0,0,0,-9.7,1.41,-0.17,17.1263830661774
,0,0.34,0.63,-0.24,0.65,0.02,0.74,-0.16,-9.39,1.53,-1.22,0,0,0,-9.7,1.39,-0.24,17.1449148654938
,0,0.34,0.63,-0.24,0.65,-0.12,0.65,-0.13,-9.32,1.15,-1.65,0,0,0,-9.7,1.37,-0.36,17.1612546443939
,0,0.34,0.64,-0.24,0.65,-0.1,0.6,-0.11,-9.34,1.08,-2.07,0,0,0,-9.7,1.35,-0.47,17.1768245697021
,0,0.34,0.64,-0.24,0.64,0.03,0.55,-0.09,-9.28,1.04,-2.38,0,0,0,-9.7,1.34,-0.52,17.1947455406189
,0,0.34,0.64,-0.24,0.64,0.09,0.58,-0.09,-9.38,0.84,-2.05,0,0,0,-9.69,1.32,-0.63,17.2108681201935
,0,0.34,0.65,-0.24,0.64,0.11,0.6,-0.1,-9.44,0.89,-2.59,0,0,0,-9.69,1.3,-0.75,17.2260978221893
,0,0.35,0.65,-0.23,0.63,0.08,0.64,-0.13,-9.52,0.56,-2.3,0,0,0,-9.68,1.28,-0.81,17.2446084022522
,0,0.35,0.65,-0.23,0.63,0.21,0.69,-0.12,-9.87,1.43,-2.53,0,0,0,-9.67,1.26,-0.94,17.2614510059357
,0,0.35,0.66,-0.23,0.62,0.18,0.67,-0.11,-10.15,0.87,-1.14,0,0,0,-9.66,1.23,-1.07,17.2762203216553
,0,0.35,0.66,-0.23,0.62,0.21,0.63,-0.11,-10.02,1.05,-1.69,0,0,0,-9.66,1.22,-1.13,17.2944166660309
,0,0.35,0.66,-0.23,0.62,0.23,0.57,-0.1,-10.18,0.95,-1.81,0,0,0,-9.65,1.2,-1.24,17.3115346431732
,0,0.35,0.67,-0.23,0.61,0.22,0.58,-0.1,-9.98,0.59,-2.07,0,0,0,-9.63,1.17,-1.36,17.326735496521
,0,0.36,0.67,-0.24,0.61,0.28,0.59,-0.09,-9.97,0.46,-2.08,0,0,0,-9.63,1.16,-1.42,17.3448858261108
,0,0.36,0.67,-0.24,0.6,0.34,0.63,-0.1,-10.14,0.35,-2.1,0,0,0,-9.61,1.13,-1.54,17.3610019683838
,0,0.36,0.67,-0.24,0.6,0.41,0.67,-0.12,-10.15,0.91,-2.18,0,0,0,-9.59,1.09,-1.68,17.3766496181488
,0,0.36,0.68,-0.24,0.59,0.48,0.73,-0.15,-10.06,0.84,-2.32,0,0,0,-9.58,1.07,-1.75,17.394641160965
,0,0.37,0.68,-0.24,0.59,0.53,0.82,-0.21,-9.91,1.14,-2.37,0,0,0,-9.56,1.02,-1.91,17.4119319915771
,0,0.37,0.69,-0.24,0.58,0.55,0.88,-0.25,-10.43,1.25,-1.64,0,0,0,-9.53,0.95,-2.09,17.426924943924
,0,0.37,0.69,-0.24,0.57,0.56,1,-0.32,-10.46,1.45,-1.62,0,0,0,-9.51,0.91,-2.19,17.4447245597839
,0,0.37,0.69,-0.24,0.56,0.6,1.09,-0.37,-10.25,0.85,-1.94,0,0,0,-9.47,0.81,-2.39,17.4615411758423
,0,0.38,0.7,-0.25,0.55,0.59,1.13,-0.41,-10.62,1.8,-1.11,0,0,0,-9.42,0.7,-2.61,17.4766795635223
,0,0.38,0.71,-0.25,0.54,0.72,1.31,-0.54,-10.95,2.15,-0.85,0,0,0,-9.39,0.64,-2.74,17.4948518276215
,0,0.38,0.71,-0.25,0.53,0.67,1.45,-0.61,-11.22,1.49,-0.42,0,0,0,-9.32,0.49,-3,17.5113480091095
,0,0.39,0.72,-0.25,0.52,0.7,1.61,-0.68,-12.65,1.43,-0.56,0,0,0,-9.22,0.32,-3.3,17.5268864631653
,0,0.39,0.73,-0.26,0.5,0.88,1.78,-0.7,-13.23,0.74,-0.4,0,0,0,-9.16,0.23,-3.47,17.544881105423
,0,0.39,0.74,-0.26,0.49,0.98,1.99,-0.75,-14.34,0.13,1.01,0,0,0,-9.03,0.03,-3.81,17.561948299408
,0,0.4,0.74,-0.26,0.47,1.22,2.02,-0.74,-13.64,0.49,0,0,0,0,-8.87,-0.19,-4.16,17.576404094696
,0,0.4,0.75,-0.27,0.44,1.53,2.11,-0.74,-13.16,0.44,-1.04,0,0,0,-8.78,-0.31,-4.34,17.5950248241425
,0,0.41,0.76,-0.27,0.43,1.65,2.35,-0.77,-13.59,1.79,-3.63,0,0,0,-8.58,-0.58,-4.71,17.6120932102203
,0,0.41,0.77,-0.28,0.41,1.49,2.45,-0.84,-12.64,0.88,-1.65,0,0,0,-8.33,-0.85,-5.09,17.6270031929016
,0,0.42,0.77,-0.28,0.38,1.35,2.29,-0.81,-12.59,0.66,-3.53,0,0,0,-8.21,-0.98,-5.26,17.6450669765472
,0,0.42,0.78,-0.28,0.37,1.69,2.09,-0.79,-9.86,-1.37,-9.01,0,0,0,-7.97,-1.28,-5.56,17.6623244285583
,0,0.43,0.78,-0.29,0.35,1.46,2.12,-0.81,-8.23,-1.78,-7.48,0,0,0,-7.72,-1.54,-5.83,17.6774964332581
,0,0.43,0.79,-0.29,0.33,0.83,1.82,-0.68,-7.58,-1.22,-6.97,0,0,0,-7.61,-1.64,-5.95,17.6952919960022
,0,0.43,0.79,-0.29,0.32,0.28,1.19,-0.43,-7.41,1.47,-0.71,0,0,0,-7.43,-1.77,-6.14,17.712317943573
,0,0.43,0.79,-0.29,0.32,0.07,0.52,0.04,-6.27,1.74,-1.26,0,0,0,-7.35,-1.79,-6.23,17.7271966934204
,0,0.43,0.79,-0.29,0.32,-0.04,0.16,0.21,-6,1.5,1,0,0,0,-7.34,-1.77,-6.24,17.7448098659515
,0,0.43,0.79,-0.29,0.32,0.09,-0.56,0.5,-5.45,-0.07,-0.84,0,0,0,-7.4,-1.71,-6.19,17.7621960639954
,0,0.44,0.78,-0.29,0.33,0.3,-1.25,0.66,-5.27,-1.24,-1.07,0,0,0,-7.55,-1.65,-6.03,17.7774398326874
,0,0.44,0.78,-0.3,0.34,0.29,-1.54,0.69,-5.32,-1.56,-0.82,0,0,0,-7.76,-1.59,-5.77,17.7950990200043
,0,0.44,0.77,-0.3,0.35,0.41,-2.09,0.83,-5.36,-0.03,-1.67,0,0,0,-7.89,-1.55,-5.6,17.8130440711975
,0,0.44,0.76,-0.31,0.37,0.13,-2.59,1,-5.76,1.09,-2.63,0,0,0,-8.18,-1.42,-5.21,17.8282806873322
,0,0.44,0.74,-0.32,0.4,-0.12,-2.81,1.1,-6.34,0.87,-2.87,0,0,0,-8.49,-1.21,-4.75,17.8454222679138
,0,0.44,0.73,-0.32,0.41,-0.46,-3.16,1.33,-7.03,-0.37,-3.15,0,0,0,-8.64,-1.08,-4.49,17.8636093139648
,0,0.44,0.71,-0.32,0.44,-0.6,-3.46,1.51,-8.35,-0.59,-3.44,0,0,0,-8.95,-0.79,-3.92,17.8781809806824
,0,0.43,0.69,-0.33,0.47,-0.57,-3.59,1.59,-8.92,-0.62,-3.48,0,0,0,-9.22,-0.46,-3.29,17.8958396911621
,0,0.43,0.68,-0.33,0.49,-0.59,-3.81,1.72,-10.3,-0.13,-3.67,0,0,0,-9.34,-0.29,-2.95,17.9138638973236
,0,0.43,0.66,-0.33,0.52,-0.7,-4.06,1.78,-11.28,-0.2,-3.93,0,0,0,-9.55,0.06,-2.22,17.928938627243
,0,0.42,0.63,-0.34,0.56,-0.73,-4.19,1.8,-11.86,0.28,-4.07,0,0,0,-9.69,0.43,-1.42,17.94655418396
,0,0.42,0.62,-0.34,0.58,-0.85,-4.37,1.89,-12.91,0.55,-5.01,0,0,0,-9.73,0.61,-1.01,17.9639101028442
,0,0.41,0.59,-0.34,0.61,-1.12,-4.41,1.88,-13.12,0.43,-6.2,0,0,0,-9.75,0.98,-0.16,17.98011469841
,0,0.39,0.56,-0.34,0.65,-1.26,-4.36,1.87,-13.39,0.75,-6.29,0,0,0,-9.69,1.32,0.67,17.9966199398041
,0,0.39,0.54,-0.33,0.67,-1.62,-4.14,1.82,-13.46,0.82,-7.47,0,0,0,-9.63,1.48,1.08,18.0139446258545
,0,0.37,0.52,-0.33,0.7,-1.84,-3.69,1.73,-12.38,-1,-8.98,0,0,0,-9.46,1.76,1.84,18.0304017066956
,0,0.36,0.5,-0.32,0.72,-1.8,-3.34,1.62,-10.3,-1.9,-9.73,0,0,0,-9.27,1.97,2.48,18.0468423366547
,0,0.35,0.49,-0.32,0.74,-1.55,-2.57,1.47,-9.24,-2.27,-9.73,0,0,0,-9.18,2.06,2.74,18.0641202926636
,0,0.34,0.47,-0.31,0.75,-1.04,-1.67,1.09,-6.98,-2.79,-9.72,0,0,0,-9.02,2.21,3.12,18.0803754329681
,0,0.34,0.47,-0.3,0.76,-0.74,-1.16,0.87,-5.42,0.19,-10.82,0,0,0,-8.94,2.3,3.3,18.0969595909119
,0,0.34,0.47,-0.3,0.76,-0.55,0.02,0.36,-5.18,-0.02,-10.69,0,0,0,-8.93,2.31,3.31,18.1140737533569
,0,0.34,0.47,-0.29,0.76,-0.71,1.31,-0.19,-8.1,1.85,-6.16,0,0,0,-8.99,2.26,3.17,18.1305918693542
,0,0.33,0.49,-0.28,0.75,-1.21,1.75,-0.51,-17.96,0.75,33.28,0,0,0,-9.13,2.08,2.9,18.1473441123962
,0,0.33,0.51,-0.28,0.75,-0.01,1.61,-0.12,-14.61,-3.48,-3.01,0,0,0,-9.17,2.07,2.76,18.1647026538849
,0,0.33,0.51,-0.28,0.74,-0.23,1.14,-0.13,-12.23,-2.43,0.66,0,0,0,-9.23,2.03,2.58,18.1809682846069
,0,0.33,0.52,-0.28,0.74,-0.24,1.4,-0.31,-11.2,0.17,0.16,0,0,0,-9.32,1.96,2.32,18.1972720623016
,0,0.34,0.53,-0.28,0.73,0.45,1.48,-0.47,-11.7,2.76,0.46,0,0,0,-9.36,1.93,2.18,18.2150645256042
,0,0.34,0.54,-0.27,0.72,0.2,1.45,-0.23,-9.32,3.46,-5.05,0,0,0,-9.43,1.89,1.9,18.2314541339874
,0,0.34,0.55,-0.27,0.72,-0.21,1.47,-0.31,-9.41,3.82,-1.42,0,0,0,-9.49,1.81,1.65,18.2476277351379
,0,0.33,0.57,-0.26,0.71,-1.15,1.56,-0.38,-9.76,1.18,-1.91,0,0,0,-9.52,1.75,1.52,18.2645814418793
,0,0.33,0.57,-0.26,0.71,-1.29,1.33,-0.23,-10.81,0.62,-0.47,0,0,0,-9.57,1.67,1.3,18.2817804813385
,0,0.32,0.58,-0.25,0.7,-0.94,1.1,-0.17,-9.71,-0.95,-0.71,0,0,0,-9.6,1.63,1.15,18.2976496219635
,0,0.32,0.59,-0.25,0.7,-0.41,0.81,-0.02,-9.46,-1.1,-1.45,0,0,0,-9.61,1.62,1.08,18.3148760795593
,0,0.33,0.59,-0.25,0.7,0.59,0.86,-0.05,-9.95,0.42,-2.14,0,0,0,-9.62,1.62,0.91,18.331515789032
,0,0.33,0.59,-0.25,0.69,0.59,0.93,-0.05,-10.05,1.96,-0.76,0,0,0,-9.64,1.62,0.71,18.3476378917694
,0,0.34,0.6,-0.25,0.68,0.38,1.03,-0.07,-10.05,1.78,-0.96,0,0,0,-9.65,1.61,0.61,18.3647835254669
,0,0.34,0.6,-0.24,0.68,0.33,1,-0.06,-9.91,1.74,-0.39,0,0,0,-9.66,1.61,0.41,18.3813409805298
,0,0.34,0.61,-0.24,0.67,0.35,0.99,-0.08,-9.94,2.81,-1.64,0,0,0,-9.67,1.59,0.22,18.3982558250427
,0,0.35,0.61,-0.24,0.67,0.33,0.89,-0.1,-10.01,2.01,-1.21,0,0,0,-9.67,1.59,0.13,18.4161190986633
,0,0.35,0.62,-0.24,0.66,0.26,0.76,-0.12,-10.26,1.12,-1.02,0,0,0,-9.68,1.56,-0.02,18.4324450492859
,0,0.35,0.62,-0.24,0.66,0.29,0.71,-0.16,-10.53,0.88,-1.45,0,0,0,-9.68,1.53,-0.15,18.4479548931122
,0,0.35,0.62,-0.24,0.65,0.23,0.62,-0.18,-10.43,1.33,-1.13,0,0,0,-9.68,1.52,-0.21,18.4652953147888
,0,0.35,0.63,-0.24,0.65,0.07,0.58,-0.13,-9.69,1.53,-2.37,0,0,0,-9.68,1.49,-0.33,18.4821438789368
,0,0.35,0.63,-0.24,0.65,-0.04,0.57,-0.13,-9.54,0.87,-2.15,0,0,0,-9.68,1.46,-0.43,18.4980065822601
,0,0.35,0.63,-0.24,0.64,0.03,0.56,-0.14,-9.19,0.75,-2.55,0,0,0,-9.68,1.45,-0.49,18.5159871578217
,0,0.35,0.64,-0.24,0.64,0.24,0.56,-0.12,-9.14,0.37,-2.35,0,0,0,-9.68,1.42,-0.6,18.5320904254913
,0,0.36,0.64,-0.24,0.64,0.42,0.55,-0.11,-9.27,1.15,-1.89,0,0,0,-9.67,1.4,-0.71,18.5482938289642
,0,0.36,0.64,-0.25,0.63,0.45,0.53,-0.1,-9.49,1.45,-1.75,0,0,0,-9.67,1.38,-0.77,18.566047668457
,0,0.36,0.64,-0.25,0.63,0.37,0.5,-0.09,-9.87,1.69,-1.42,0,0,0,-9.67,1.36,-0.87,18.5831265449524
,0,0.36,0.65,-0.25,0.62,0.25,0.47,-0.07,-9.87,1.59,-1.7,0,0,0,-9.66,1.34,-0.97,18.5978281497955
,0,0.37,0.65,-0.25,0.62,0.15,0.5,-0.09,-9.77,1.29,-1.42,0,0,0,-9.66,1.33,-1.02,18.6158890724182
,0,0.37,0.65,-0.25,0.62,0.12,0.49,-0.1,-9.65,1.22,-1.54,0,0,0,-9.65,1.31,-1.11,18.6318852901459
,0,0.37,0.65,-0.24,0.61,0.1,0.48,-0.11,-9.84,1.22,-1.91,0,0,0,-9.64,1.29,-1.22,18.6483564376831
,0,0.37,0.66,-0.24,0.61,0.11,0.53,-0.13,-9.81,1.18,-1.58,0,0,0,-9.63,1.27,-1.28,18.6653060913086
,0,0.37,0.66,-0.24,0.61,0.18,0.62,-0.15,-9.39,1.27,-2.92,0,0,0,-9.62,1.24,-1.4,18.6823661327362
,0,0.37,0.66,-0.24,0.6,0.16,0.67,-0.17,-9.66,0.93,-1.76,0,0,0,-9.6,1.2,-1.53,18.698234796524
,0,0.37,0.67,-0.24,0.59,0.28,0.79,-0.21,-9.85,1.11,-1.96,0,0,0,-9.6,1.18,-1.61,18.7160122394562
,0,0.37,0.67,-0.24,0.59,0.35,0.87,-0.21,-10.53,0.76,-1.95,0,0,0,-9.57,1.13,-1.77,18.732349395752
,0,0.38,0.68,-0.24,0.58,0.36,0.9,-0.22,-10.4,0.38,-2.5,0,0,0,-9.54,1.07,-1.95,18.7481300830841
,0,0.38,0.68,-0.25,0.57,0.54,0.94,-0.25,-10.41,0.46,-2.06,0,0,0,-9.53,1.04,-2.04,18.7658598423004
,0,0.38,0.68,-0.25,0.57,0.65,1.03,-0.31,-10.48,0.78,-1.42,0,0,0,-9.49,0.96,-2.24,18.7832977771759
,0,0.39,0.69,-0.25,0.56,0.67,1.04,-0.34,-10.3,0.79,-1.78,0,0,0,-9.45,0.86,-2.45,18.7986624240875
,0,0.39,0.7,-0.25,0.55,0.66,1.12,-0.41,-10.01,0.81,-2.38,0,0,0,-9.4,0.75,-2.67,18.8158543109894
,0,0.39,0.7,-0.25,0.54,0.67,1.27,-0.53,-11,1.74,-1.61,0,0,0,-9.37,0.68,-2.79,18.832995891571
,0,0.39,0.71,-0.26,0.53,0.57,1.36,-0.59,-10.75,1.23,-1.7,0,0,0,-9.3,0.55,-3.04,18.8485627174377
,0,0.4,0.72,-0.26,0.51,0.57,1.48,-0.64,-11.72,0.55,-1.36,0,0,0,-9.21,0.39,-3.31,18.8662288188934
,0,0.4,0.72,-0.26,0.51,0.77,1.59,-0.68,-12.33,-0.31,-1.6,0,0,0,-9.16,0.3,-3.46,18.8827052116394
,0,0.4,0.73,-0.26,0.49,1.05,1.72,-0.75,-13.53,-2.75,1.24,0,0,0,-9.05,0.11,-3.76,18.8982594013214
,0,0.41,0.73,-0.27,0.47,1.49,1.72,-0.78,-13.63,-2.91,1.01,0,0,0,-8.92,-0.15,-4.06,18.9164443016052
,0,0.41,0.74,-0.28,0.46,2.09,1.82,-0.95,-12.67,-0.27,0.64,0,0,0,-8.84,-0.32,-4.21,18.9336264133453
,0,0.42,0.74,-0.29,0.43,2.13,1.95,-1.06,-12.27,2.09,-2.6,0,0,0,-8.67,-0.67,-4.52,18.9489707946777
,0,0.42,0.75,-0.3,0.4,2,2.06,-1.18,-13.46,3.97,-5.44,0,0,0,-8.46,-1.04,-4.84,18.9665853977203
,0,0.42,0.76,-0.3,0.39,0.84,2.14,-1.29,-13.13,2.81,-2.17,0,0,0,-8.34,-1.18,-5,18.984445810318
,0,0.42,0.77,-0.3,0.37,0.92,2.07,-1.13,-10.99,0.28,-6.69,0,0,0,-8.1,-1.45,-5.31,18.9993879795074
,0,0.42,0.78,-0.3,0.35,0.79,2.03,-1.14,-10.03,-1.55,-8.05,0,0,0,-7.85,-1.7,-5.61,19.0174660682678
,0,0.42,0.78,-0.3,0.34,0.11,1.96,-1.09,-8.94,-1.06,-7.97,0,0,0,-7.73,-1.79,-5.75,19.0343799591064
,0,0.42,0.79,-0.29,0.33,-0.59,1.49,-0.86,-8.72,2.13,-2.8,0,0,0,-7.51,-1.87,-6.01,19.0501320362091
,0,0.42,0.8,-0.28,0.32,-0.8,1.16,-0.63,-8.49,1.87,-0.55,0,0,0,-7.37,-1.84,-6.19,19.0675995349884
,0,0.42,0.8,-0.28,0.32,-0.7,0.55,-0.18,-6.79,0.41,-0.23,0,0,0,-7.33,-1.82,-6.24,19.085348367691
,0,0.41,0.81,-0.28,0.32,-0.43,-0.15,0.13,-5.68,1.81,0.38,0,0,0,-7.33,-1.75,-6.26,19.1005308628082
,0,0.41,0.8,-0.28,0.33,-0.21,-0.55,0.3,-5.07,0.73,-1.76,0,0,0,-7.43,-1.68,-6.16,19.118136882782
,0,0.41,0.8,-0.28,0.34,-0.04,-1.23,0.49,-4.98,0.38,-2.18,0,0,0,-7.51,-1.64,-6.08,19.1355686187744
,0,0.41,0.79,-0.28,0.35,0.1,-1.75,0.62,-5.85,-0.33,-2.13,0,0,0,-7.72,-1.56,-5.84,19.1513679027557
,0,0.41,0.78,-0.29,0.37,0.12,-2.04,0.66,-6.63,-0.8,-1.68,0,0,0,-7.98,-1.47,-5.5,19.1682527065277
,0,0.41,0.77,-0.3,0.39,0.25,-2.63,0.83,-6.83,-0.2,-1.92,0,0,0,-8.13,-1.42,-5.29,19.1858315467834
,0,0.41,0.76,-0.31,0.4,0.24,-3.1,1.06,-7.06,0.33,-2.62,0,0,0,-8.44,-1.28,-4.8,19.2019922733307
,0,0.41,0.74,-0.32,0.43,0.03,-3.43,1.29,-7.63,0.54,-3.49,0,0,0,-8.77,-1.09,-4.24,19.2188262939453
,0,0.41,0.72,-0.32,0.46,-0.1,-3.56,1.42,-8.02,0.53,-3.58,0,0,0,-8.92,-0.96,-3.94,19.235985994339
,0,0.41,0.71,-0.33,0.48,-0.32,-3.77,1.66,-9.71,0.34,-3.86,0,0,0,-9.21,-0.66,-3.29,19.2521572113037
,0,0.41,0.68,-0.33,0.51,-0.67,-3.94,1.8,-10.84,0.46,-3.94,0,0,0,-9.45,-0.31,-2.59,19.2689654827118
,0,0.4,0.66,-0.33,0.55,-0.83,-4.05,1.84,-11.92,0.22,-4.1,0,0,0,-9.55,-0.12,-2.22,19.2862274646759
,0,0.4,0.64,-0.33,0.56,-1.1,-4.24,1.93,-12.42,0.19,-4.52,0,0,0,-9.69,0.26,-1.43,19.3020825386047
,0,0.39,0.62,-0.33,0.6,-1.23,-4.36,1.95,-12.95,-0.14,-5.9,0,0,0,-9.76,0.65,-0.6,19.3189733028412
,0,0.38,0.59,-0.32,0.64,-1.3,-4.36,1.93,-12.74,-0.66,-6.34,0,0,0,-9.76,0.84,-0.18,19.3364429473877
,0,0.37,0.57,-0.32,0.66,-1.55,-4.25,1.78,-12.7,-0.58,-7.28,0,0,0,-9.71,1.18,0.65,19.3528668880463
,0,0.36,0.55,-0.32,0.69,-1.63,-3.89,1.63,-12.44,-0.08,-8.88,0,0,0,-9.58,1.46,1.44,19.3690116405487
,0,0.34,0.52,-0.31,0.72,-1.7,-3.64,1.55,-11.9,-0.8,-10.28,0,0,0,-9.5,1.57,1.8,19.3867509365082
,0,0.34,0.51,-0.3,0.73,-1.7,-2.98,1.32,-10.55,-2.4,-10.77,0,0,0,-9.33,1.75,2.43,19.402676820755
,0,0.33,0.5,-0.3,0.75,-1.21,-2.03,1.09,-7.24,-3.17,-10.67,0,0,0,-9.17,1.89,2.89,19.4196121692657
,0,0.32,0.49,-0.29,0.76,-0.83,-1.51,0.94,-6.53,-2.84,-10.81,0,0,0,-9.11,1.95,3.04,19.4365217685699
,0,0.32,0.48,-0.29,0.76,-0.1,-0.45,0.56,-5.52,-1.59,-11.27,0,0,0,-9.04,2.05,3.18,19.4524524211884
,0,0.33,0.49,-0.29,0.76,0.21,0.63,0.03,-5.4,-1.73,-10.79,0,0,0,-9.06,2.09,3.11,19.4693574905396
,0,0.33,0.5,-0.29,0.75,0.18,1.17,-0.23,-6.74,-0.03,-9.68,0,0,0,-9.1,2.07,3,19.4868717193604
,0,0.32,0.51,-0.28,0.75,-0.83,1.79,-0.45,-18.27,-0.19,36,0,0,0,-9.21,1.95,2.73,19.5023212432861
,0,0.34,0.51,-0.28,0.74,0.64,0.87,0.09,-13.53,-1.19,1.14,0,0,0,-9.26,2.01,2.49,19.5196039676666
,0,0.34,0.52,-0.28,0.73,0.31,1.03,-0.09,-12.5,-0.28,-0.48,0,0,0,-9.29,2.01,2.39,19.5363340377808
,0,0.34,0.52,-0.28,0.73,-0.02,1.35,-0.44,-11.36,-3,-0.07,0,0,0,-9.36,1.95,2.16,19.5521247386932
,0,0.34,0.53,-0.28,0.72,0.46,1.42,-0.31,-10.17,0.67,-2.65,0,0,0,-9.43,1.89,1.89,19.5695254802704
,0,0.35,0.54,-0.28,0.71,0.47,1.44,-0.24,-9.59,1.12,-3.63,0,0,0,-9.46,1.88,1.75,19.5868825912476
,0,0.35,0.55,-0.28,0.71,-0.39,1.42,-0.33,-9.61,3.57,-1.06,0,0,0,-9.51,1.81,1.49,19.6019582748413
,0,0.34,0.56,-0.27,0.7,-0.96,1.3,-0.22,-9.8,1.88,-1.87,0,0,0,-9.56,1.75,1.27,19.6195530891418
,0,0.34,0.57,-0.26,0.7,-1.06,1.17,-0.2,-10.26,1.49,0.06,0,0,0,-9.58,1.72,1.18,19.6369774341583
,0,0.34,0.58,-0.26,0.7,-0.76,0.9,-0.11,-9,1.06,-0.22,0,0,0,-9.6,1.67,1.03,19.6518812179565
,0,0.34,0.58,-0.25,0.69,-0.5,0.84,-0.09,-9.49,0.56,-1.64,0,0,0,-9.62,1.65,0.88,19.6698615550995
,0,0.34,0.59,-0.25,0.69,0.01,0.95,-0.12,-9.64,1.18,-2.05,0,0,0,-9.63,1.64,0.79,19.6865768432617
,0,0.34,0.6,-0.25,0.68,0.14,1.12,-0.19,-10.24,1.52,-1.41,0,0,0,-9.65,1.61,0.59,19.7014682292938
,0,0.34,0.6,-0.25,0.68,0.28,1.12,-0.22,-9.84,0.44,-1.03,0,0,0,-9.67,1.57,0.37,19.7198038101196
,0,0.35,0.61,-0.25,0.67,0.34,1.08,-0.23,-9.85,1.45,-1.45,0,0,0,-9.67,1.55,0.26,19.7368896007538
,0,0.35,0.61,-0.25,0.66,0.44,0.98,-0.22,-9.86,2.12,-1.38,0,0,0,-9.68,1.51,0.06,19.7521886825562
,0,0.35,0.62,-0.25,0.66,0.17,0.84,-0.17,-10.28,1.7,-1.51,0,0,0,-9.69,1.47,-0.1,19.7692837715149
,0,0.35,0.62,-0.25,0.65,0.07,0.79,-0.16,-10.52,1,-1.49,0,0,0,-9.69,1.46,-0.18,19.7867467403412
,0,0.35,0.63,-0.25,0.65,-0.09,0.65,-0.17,-10.43,0.35,-1.58,0,0,0,-9.69,1.43,-0.3,19.8019216060638
,0,0.35,0.63,-0.25,0.65,-0.09,0.57,-0.13,-10.25,0.72,-2.44,0,0,0,-9.69,1.4,-0.41,19.8196537494659
,0,0.35,0.63,-0.25,0.64,-0.13,0.54,-0.12,-9.77,0.89,-2.17,0,0,0,-9.69,1.39,-0.46,19.8367094993591
,0,0.35,0.64,-0.24,0.64,-0.04,0.49,-0.09,-9.21,0.68,-3.05,0,0,0,-9.69,1.37,-0.55,19.8519747257233
,0,0.35,0.64,-0.24,0.64,0.06,0.48,-0.12,-9.28,0.73,-2.11,0,0,0,-9.69,1.35,-0.64,19.8693089485168
,0,0.35,0.64,-0.24,0.63,0.15,0.47,-0.1,-9.23,0.81,-2.44,0,0,0,-9.68,1.34,-0.69,19.8866186141968
,0,0.36,0.64,-0.24,0.63,0.29,0.45,-0.09,-9.41,1.08,-2.35,0,0,0,-9.68,1.32,-0.78,19.9027178287506
,0,0.36,0.65,-0.25,0.63,0.38,0.44,-0.06,-9.72,1.3,-1.14,0,0,0,-9.67,1.3,-0.88,19.9201331138611
,0,0.36,0.65,-0.25,0.62,0.39,0.43,-0.04,-9.83,1.64,-1.11,0,0,0,-9.67,1.29,-0.92,19.9375183582306
,0,0.36,0.65,-0.25,0.62,0.25,0.42,-0,-9.93,1.9,-1.33,0,0,0,-9.66,1.28,-1.01,19.9520683288574
,0,0.36,0.65,-0.25,0.62,0.09,0.41,-0,-9.69,1.29,-1.34,0,0,0,-9.66,1.28,-1.08,19.9698984622955
,0,0.37,0.65,-0.25,0.62,0.08,0.46,-0.02,-9.73,1.64,-1.78,0,0,0,-9.65,1.28,-1.13,19.9866752624512
,0,0.37,0.65,-0.24,0.61,-0.07,0.49,-0.04,-9.48,1.3,-1.9,0,0,0,-9.64,1.27,-1.22,20.0019438266754
,0,0.37,0.66,-0.24,0.61,-0.1,0.57,-0.09,-9.45,1.32,-1.82,0,0,0,-9.63,1.26,-1.31,20.0197470188141
,0,0.37,0.66,-0.24,0.61,-0.05,0.63,-0.11,-9.58,1.26,-2.07,0,0,0,-9.62,1.25,-1.37,20.0369875431061
,0,0.37,0.67,-0.24,0.6,-0.01,0.75,-0.16,-9.57,1.13,-2.38,0,0,0,-9.61,1.23,-1.51,20.05246758461
,0,0.37,0.67,-0.24,0.6,0.04,0.85,-0.22,-10.03,0.7,-1.98,0,0,0,-9.59,1.19,-1.66,20.0698747634888
,0,0.37,0.68,-0.24,0.59,0.13,0.88,-0.22,-10.39,0.81,-2.12,0,0,0,-9.57,1.16,-1.74,20.0871624946594
,0,0.37,0.68,-0.24,0.59,0.26,0.89,-0.21,-10.63,0.25,-2.15,0,0,0,-9.55,1.12,-1.92,20.1027276515961
,0,0.37,0.68,-0.24,0.58,0.45,0.92,-0.26,-10.63,0.26,-2.04,0,0,0,-9.52,1.05,-2.09,20.1207847595215
,0,0.38,0.69,-0.24,0.57,0.52,0.95,-0.29,-10.55,0.21,-2.31,0,0,0,-9.48,0.98,-2.28,20.137223482132
,0,0.38,0.69,-0.24,0.57,0.6,1.04,-0.38,-10.53,0.69,-2.48,0,0,0,-9.46,0.93,-2.38,20.153106212616
,0,0.38,0.7,-0.24,0.56,0.67,1.17,-0.48,-11.04,1.93,-1.84,0,0,0,-9.41,0.81,-2.6,20.1713051795959
,0,0.38,0.71,-0.25,0.54,0.63,1.21,-0.51,-11.48,2.56,-1.17,0,0,0,-9.36,0.69,-2.83,20.188440322876
,0,0.38,0.71,-0.25,0.54,0.55,1.33,-0.55,-10.85,1.38,-1.53,0,0,0,-9.32,0.62,-2.96,20.2032096385956
,0,0.39,0.72,-0.25,0.52,0.66,1.48,-0.62,-11.32,0.67,-1.64,0,0,0,-9.24,0.47,-3.23,20.2213928699493
,0,0.39,0.73,-0.25,0.51,0.7,1.54,-0.66,-11.69,0.46,-1.2,0,0,0,-9.14,0.31,-3.52,20.2380573749542
,0,0.39,0.73,-0.25,0.5,0.85,1.64,-0.69,-12.42,-0.32,-0.16,0,0,0,-9.09,0.21,-3.66,20.2529275417328
,0,0.4,0.74,-0.26,0.48,1.18,1.71,-0.75,-13.41,0.02,0.36,0,0,0,-8.96,0.01,-3.96,20.271497964859
,0,0.4,0.75,-0.26,0.46,1.33,1.75,-0.76,-13.47,0.61,0.9,0,0,0,-8.82,-0.23,-4.26,20.2877876758575
,0,0.4,0.75,-0.27,0.45,1.59,1.84,-0.82,-12.28,1.2,-0.88,0,0,0,-8.74,-0.37,-4.41,20.3033487796783
,0,0.41,0.76,-0.28,0.43,1.64,2.15,-0.92,-12.61,2.91,-4.98,0,0,0,-8.55,-0.66,-4.74,20.3222649097443
,0,0.41,0.77,-0.28,0.4,1.32,2.25,-1,-13.84,1.46,-1.99,0,0,0,-8.32,-0.94,-5.09,20.3385758399963
,0,0.42,0.77,-0.28,0.39,1.35,2.15,-0.88,-12.21,1.62,-3.19,0,0,0,-8.21,-1.08,-5.24,20.3534679412842
,0,0.42,0.78,-0.29,0.37,1.04,2.11,-0.92,-10.7,-0.88,-8.58,0,0,0,-7.96,-1.34,-5.55,20.3722977638245
,0,0.42,0.79,-0.29,0.35,0.81,2.05,-0.9,-8.95,-1.01,-7.62,0,0,0,-7.72,-1.54,-5.83,20.3889882564545
,0,0.42,0.79,-0.28,0.34,0.44,1.78,-0.7,-9.15,-0.38,-5.51,0,0,0,-7.61,-1.62,-5.96,20.4039859771729
,0,0.42,0.8,-0.28,0.33,-0.15,1.05,-0.36,-8.62,0.79,0.02,0,0,0,-7.45,-1.69,-6.14,20.4222986698151
,0,0.42,0.8,-0.28,0.32,-0.1,0.71,-0.12,-7.21,0.69,-0.48,0,0,0,-7.38,-1.68,-6.22,20.439058303833
,0,0.42,0.8,-0.28,0.32,-0.09,0.06,0.2,-6.29,1.43,0.87,0,0,0,-7.38,-1.66,-6.23,20.4538555145264
,0,0.42,0.8,-0.28,0.33,0.22,-0.73,0.47,-5.28,-0.08,-0.45,0,0,0,-7.46,-1.62,-6.15,20.4727003574371
,0,0.43,0.79,-0.29,0.34,0.39,-1.1,0.55,-4.96,-1.15,-1.24,0,0,0,-7.62,-1.58,-5.95,20.4887318611145
,0,0.43,0.78,-0.29,0.35,0.39,-1.72,0.62,-5.4,-0.59,-1.56,0,0,0,-7.73,-1.56,-5.82,20.5041990280151
,0,0.43,0.77,-0.3,0.36,0.28,-2.28,0.74,-5.48,-0.91,-1.6,0,0,0,-7.99,-1.49,-5.48,20.5227146148682
,0,0.43,0.76,-0.31,0.38,0.21,-2.55,0.84,-5.54,-0.52,-1.53,0,0,0,-8.28,-1.36,-5.06,20.5384042263031
,0,0.43,0.75,-0.31,0.4,-0.16,-3.01,1.14,-6.5,0.92,-2.41,0,0,0,-8.44,-1.26,-4.82,20.5536386966705
,0,0.43,0.73,-0.32,0.43,-0.56,-3.35,1.38,-7.53,0.59,-3.16,0,0,0,-8.76,-0.99,-4.28,20.5730035305023
,0,0.42,0.71,-0.32,0.46,-0.7,-3.5,1.47,-8.52,0.28,-3.22,0,0,0,-9.06,-0.68,-3.68,20.5892956256866
,0,0.42,0.7,-0.32,0.48,-0.78,-3.73,1.64,-9.76,-0.09,-3.58,0,0,0,-9.19,-0.51,-3.35,20.6046454906464
,0,0.42,0.68,-0.32,0.51,-0.88,-3.94,1.71,-11.05,-0.34,-3.83,0,0,0,-9.43,-0.15,-2.65,20.6240746974945
,0,0.41,0.66,-0.32,0.55,-0.93,-4.08,1.71,-12.33,-0.47,-4.2,0,0,0,-9.62,0.2,-1.89,20.6392796039581
,0,0.4,0.64,-0.33,0.56,-0.86,-4.38,1.73,-12.55,-0.43,-4.39,0,0,0,-9.68,0.37,-1.48,20.6548871994019
,0,0.4,0.61,-0.33,0.6,-0.71,-4.51,1.81,-13.15,-0.16,-5.07,0,0,0,-9.75,0.72,-0.62,20.6741144657135
,0,0.39,0.58,-0.33,0.63,-0.68,-4.55,1.82,-13.7,0.53,-5.83,0,0,0,-9.74,1.07,0.24,20.6894528865814
,0,0.38,0.56,-0.33,0.65,-0.85,-4.46,1.89,-13.91,0.72,-5.78,0,0,0,-9.7,1.25,0.67,20.7050185203552
,0,0.37,0.53,-0.33,0.68,-1.16,-4.19,1.87,-13.6,0.74,-6.6,0,0,0,-9.56,1.57,1.49,20.7248139381409
,0,0.36,0.5,-0.32,0.71,-1.22,-3.94,1.86,-11.57,-1.17,-11.11,0,0,0,-9.36,1.87,2.22,20.7400975227356
,0,0.36,0.49,-0.32,0.73,-1.22,-3.14,1.81,-10.73,-2.46,-11.57,0,0,0,-9.25,2.01,2.52,20.7546768188477
,0,0.35,0.47,-0.31,0.75,-0.92,-2.24,1.42,-8.69,-4.09,-10.4,0,0,0,-9.06,2.23,3,20.7747721672058
,0,0.35,0.46,-0.31,0.76,-0.59,-1.74,1.12,-5.39,-1.96,-11.14,0,0,0,-8.92,2.38,3.28,20.7903878688812
,0,0.35,0.46,-0.31,0.76,-0.12,-0.58,0.63,-4.48,-1.14,-12.19,0,0,0,-8.89,2.43,3.33,20.8052489757538
,0,0.35,0.46,-0.3,0.76,-0.3,0.85,-0.08,-4.5,-0.49,-11.38,0,0,0,-8.92,2.43,3.26,20.825056552887
,0,0.34,0.48,-0.3,0.75,-0.63,1.53,-0.4,-10.96,7.02,-0.16,0,0,0,-9.05,2.27,3,20.8403081893921
,0,0.34,0.49,-0.29,0.75,-1.81,2.1,-0.65,-18.9,-6.03,15.99,0,0,0,-9.12,2.16,2.86,20.8558716773987
,0,0.34,0.5,-0.29,0.74,0.17,1.23,-0.15,-13.61,-3.34,1,0,0,0,-9.2,2.15,2.62,20.8756651878357
,0,0.34,0.51,-0.29,0.73,0.22,1.51,-0.55,-11.67,0.33,0.28,0,0,0,-9.29,2.06,2.34,20.8902938365936
,0,0.35,0.52,-0.29,0.73,0.52,1.47,-0.49,-10.86,1.32,-0.29,0,0,0,-9.33,2.03,2.2,20.9057385921478
,0,0.35,0.53,-0.29,0.72,0.42,1.52,-0.35,-10.2,3.25,-3.81,0,0,0,-9.4,1.99,1.91,20.9258594512939
,0,0.35,0.54,-0.28,0.71,-0.87,1.54,-0.45,-9,4.98,-4.05,0,0,0,-9.47,1.89,1.65,20.9405922889709
