Header,TimeStamp,QuatX,QuatY,QuatZ,QuatW,GyroX,GyroY,GyroZ,AccelX,AccelY,AccelZ,EulerX,EulerY,EulerZ,GravityX,GravityY,GravityZ,TimeStampGlob
,0,0.1,0.05,0.03,0.99,-0,0.01,0,-1,2.04,9.73,0,0,0,-0.9,2.05,9.54,0.208217620849609
,0,0.1,0.05,0.03,0.99,0,0,0,-0.96,2.07,9.73,0,0,0,-0.9,2.05,9.54,0.225152492523193
,0,0.1,0.05,0.03,0.99,0,-0,0,-0.97,2.11,9.71,0,0,0,-0.9,2.05,9.54,0.24338698387146
,0,0.1,0.05,0.03,0.99,0,0,0,-0.95,2.07,9.71,0,0,0,-0.9,2.05,9.54,0.261029005050659
,0,0.1,0.05,0.03,0.99,-0,0,-0,-0.97,2.08,9.75,0,0,0,-0.9,2.05,9.54,0.279228210449219
,0,0.1,0.05,0.03,0.99,-0,0,0,-0.95,2.09,9.71,0,0,0,-0.9,2.05,9.54,0.294927597045898
,0,0.1,0.05,0.03,0.99,-0,0,-0,-0.95,2.07,9.73,0,0,0,-0.9,2.05,9.54,0.313497066497803
,0,0.1,0.05,0.03,0.99,-0,0,-0,-0.96,2.08,9.7,0,0,0,-0.9,2.05,9.54,0.330429315567017
,0,0.1,0.05,0.03,0.99,-0,0,-0,-0.95,2.09,9.72,0,0,0,-0.9,2.05,9.54,0.348094463348389
,0,0.1,0.05,0.03,0.99,-0.01,0,-0,-0.97,2.08,9.72,0,0,0,-0.9,2.05,9.54,0.365992546081543
,0,0.1,0.05,0.03,0.99,-0.01,0,-0,-0.99,2.09,9.72,0,0,0,-0.9,2.05,9.54,0.381993770599365
,0,0.1,0.05,0.03,0.99,-0.01,0.01,-0,-0.96,2.1,9.76,0,0,0,-0.9,2.05,9.54,0.399745464324951
,0,0.1,0.05,0.03,0.99,-0.01,0,-0,-0.95,2.08,9.69,0,0,0,-0.9,2.05,9.54,0.417176723480225
,0,0.1,0.05,0.03,0.99,-0.01,0,0,-0.99,2.03,9.73,0,0,0,-0.9,2.05,9.54,0.432841539382935
,0,0.1,0.05,0.03,0.99,-0.01,0.01,-0,-0.97,2.1,9.71,0,0,0,-0.9,2.05,9.54,0.451364517211914
,0,0.1,0.05,0.03,0.99,-0,0,0,-0.98,2.07,9.74,0,0,0,-0.9,2.05,9.54,0.469239473342896
,0,0.1,0.05,0.03,0.99,0,0,-0,-0.99,2.06,9.71,0,0,0,-0.9,2.05,9.54,0.484797477722168
,0,0.1,0.05,0.03,0.99,-0,-0,0,-0.99,2.07,9.75,0,0,0,-0.9,2.05,9.54,0.503736734390259
,0,0.1,0.05,0.03,0.99,0,-0,0,-0.97,2.08,9.7,0,0,0,-0.9,2.05,9.54,0.521765232086182
,0,0.1,0.05,0.03,0.99,0,-0,-0,-0.98,2.07,9.7,0,0,0,-0.9,2.05,9.54,0.537780046463013
,0,0.1,0.05,0.03,0.99,0,-0,0,-0.94,2.06,9.74,0,0,0,-0.9,2.05,9.54,0.555969476699829
,0,0.1,0.05,0.03,0.99,0,-0,0,-0.96,2.09,9.71,0,0,0,-0.9,2.05,9.54,0.575626850128174
,0,0.1,0.05,0.03,0.99,0,0,0,-0.95,2.07,9.72,0,0,0,-0.9,2.05,9.54,0.593208789825439
,0,0.1,0.05,0.03,0.99,0,-0,0,-1,2.07,9.7,0,0,0,-0.9,2.05,9.54,0.611762046813965
,0,0.1,0.05,0.03,0.99,0,0,-0,-0.97,2.08,9.72,0,0,0,-0.9,2.05,9.54,0.629384756088257
,0,0.1,0.05,0.03,0.99,0.01,0,0,-0.97,2.08,9.74,0,0,0,-0.9,2.05,9.54,0.646960020065308
,0,0.1,0.05,0.03,0.99,0.01,-0.01,0,-0.97,2.07,9.7,0,0,0,-0.9,2.05,9.54,0.66514253616333
,0,0.1,0.05,0.03,0.99,0.01,-0,0,-0.99,2.05,9.73,0,0,0,-0.9,2.05,9.54,0.682247877120972
,0,0.1,0.05,0.03,0.99,0.01,-0,0,-0.96,2.09,9.73,0,0,0,-0.9,2.05,9.54,0.700514793395996
,0,0.1,0.05,0.03,0.99,0,0,0,-0.96,2.08,9.7,0,0,0,-0.9,2.05,9.54,0.717740774154663
,0,0.1,0.05,0.03,0.99,0.01,-0,0,-0.98,2.08,9.71,0,0,0,-0.9,2.05,9.54,0.734443664550781
,0,0.1,0.05,0.03,0.99,0,-0,0,-0.97,2.08,9.73,0,0,0,-0.9,2.05,9.54,0.754289865493774
,0,0.1,0.05,0.03,0.99,0,-0,0,-0.96,2.07,9.72,0,0,0,-0.9,2.05,9.54,0.772781133651733
,0,0.1,0.05,0.03,0.99,0.01,0,0,-0.99,2.09,9.74,0,0,0,-0.9,2.05,9.54,0.788454055786133
,0,0.1,0.05,0.03,0.99,0.01,-0,0,-0.97,2.09,9.74,0,0,0,-0.9,2.05,9.54,0.806955099105835
,0,0.1,0.05,0.03,0.99,0,0,0,-0.97,2.08,9.73,0,0,0,-0.9,2.05,9.54,0.825605392456055
,0,0.1,0.05,0.03,0.99,0,0,0,-0.96,2.07,9.73,0,0,0,-0.9,2.05,9.54,0.84360146522522
,0,0.1,0.05,0.03,0.99,0,0,0,-0.98,2.08,9.72,0,0,0,-0.9,2.05,9.54,0.863525152206421
,0,0.1,0.05,0.03,0.99,0,-0,0,-0.98,2.08,9.71,0,0,0,-0.9,2.05,9.54,0.881372451782227
,0,0.1,0.05,0.03,0.99,0,-0,0,-0.97,2.09,9.73,0,0,0,-0.9,2.05,9.54,0.898831605911255
,0,0.1,0.05,0.03,0.99,0,-0,0,-0.97,2.07,9.72,0,0,0,-0.9,2.05,9.54,0.916692018508911
,0,0.1,0.05,0.03,0.99,0,0,0,-0.98,2.08,9.69,0,0,0,-0.9,2.05,9.54,0.933872938156128
,0,0.1,0.05,0.03,0.99,0,0,0,-0.97,2.08,9.72,0,0,0,-0.9,2.05,9.54,0.953359842300415
,0,0.1,0.05,0.03,0.99,0.01,0,0,-0.98,2.09,9.73,0,0,0,-0.9,2.05,9.54,0.972658634185791
,0,0.1,0.05,0.03,0.99,0.01,-0,0,-0.96,2.08,9.73,0,0,0,-0.9,2.05,9.54,0.988238573074341
,0,0.1,0.05,0.03,0.99,0,0,0,-0.96,2.08,9.72,0,0,0,-0.9,2.05,9.54,1.00685429573059
,0,0.1,0.05,0.03,0.99,0,-0,0,-0.96,2.09,9.7,0,0,0,-0.9,2.05,9.54,1.02607202529907
,0,0.1,0.05,0.03,0.99,0,0,-0,-0.97,2.08,9.72,0,0,0,-0.9,2.05,9.54,1.04331660270691
,0,0.1,0.05,0.03,0.99,0,-0,-0,-0.97,2.07,9.71,0,0,0,-0.9,2.05,9.54,1.06301403045654
,0,0.1,0.05,0.03,0.99,0,0,-0,-0.98,2.07,9.7,0,0,0,-0.9,2.05,9.54,1.07991194725037
,0,0.1,0.05,0.03,0.99,0,-0,0,-0.99,2.07,9.71,0,0,0,-0.9,2.05,9.54,1.09743070602417
,0,0.1,0.05,0.03,0.99,-0,0,0,-0.99,2.08,9.74,0,0,0,-0.9,2.05,9.54,1.11638140678406
,0,0.1,0.05,0.03,0.99,-0,0,-0,-0.97,2.06,9.71,0,0,0,-0.9,2.05,9.54,1.13428831100464
,0,0.1,0.05,0.03,0.99,0,0,0,-0.98,2.07,9.74,0,0,0,-0.9,2.05,9.54,1.15484309196472
,0,0.1,0.05,0.03,0.99,-0,-0,0,-0.98,2.08,9.7,0,0,0,-0.9,2.05,9.54,1.17441272735596
,0,0.1,0.05,0.03,0.99,0,-0,-0,-0.97,2.07,9.73,0,0,0,-0.9,2.05,9.54,1.18973588943481
,0,0.1,0.05,0.03,0.99,0,-0,0,-0.97,2.08,9.72,0,0,0,-0.9,2.05,9.54,1.20729351043701
,0,0.1,0.05,0.03,0.99,0,-0,0,-0.98,2.07,9.71,0,0,0,-0.9,2.05,9.54,1.22680974006653
,0,0.1,0.05,0.03,0.99,0,0,0,-0.96,2.09,9.73,0,0,0,-0.9,2.05,9.54,1.24541902542114
,0,0.1,0.05,0.03,0.99,-0,0,-0,-0.98,2.09,9.72,0,0,0,-0.9,2.05,9.54,1.26595091819763
,0,0.1,0.05,0.03,0.99,-0,0,-0,-0.98,2.08,9.72,0,0,0,-0.9,2.05,9.54,1.28394103050232
,0,0.1,0.05,0.03,0.99,0,0,0,-0.98,2.07,9.76,0,0,0,-0.9,2.05,9.54,1.30147624015808
,0,0.1,0.05,0.03,0.99,0,-0,0,-0.98,2.07,9.69,0,0,0,-0.9,2.05,9.54,1.3178436756134
,0,0.1,0.05,0.03,0.99,0,0,0,-0.95,2.08,9.69,0,0,0,-0.9,2.05,9.54,1.33577799797058
,0,0.1,0.05,0.03,0.99,0,-0,-0,-0.96,2.07,9.73,0,0,0,-0.9,2.05,9.54,1.35609149932861
,0,0.1,0.05,0.03,0.99,-0,-0,0,-0.97,2.08,9.72,0,0,0,-0.9,2.05,9.54,1.37642502784729
,0,0.1,0.05,0.03,0.99,0,-0,0,-0.97,2.09,9.72,0,0,0,-0.9,2.05,9.54,1.39451622962952
,0,0.1,0.05,0.03,0.99,-0,-0,0,-0.97,2.05,9.71,0,0,0,-0.9,2.05,9.54,1.41485691070557
,0,0.1,0.05,0.03,0.99,-0,0,0,-0.96,2.09,9.71,0,0,0,-0.9,2.05,9.54,1.43187713623047
,0,0.1,0.05,0.03,0.99,-0,0,0,-0.97,2.08,9.73,0,0,0,-0.9,2.05,9.54,1.44865274429321
,0,0.1,0.05,0.03,0.99,-0,-0,0,-0.96,2.08,9.73,0,0,0,-0.9,2.05,9.54,1.46782994270325
,0,0.1,0.05,0.03,0.99,-0,0,-0,-0.98,2.08,9.72,0,0,0,-0.9,2.05,9.54,1.48602175712585
,0,0.1,0.05,0.03,0.99,0,-0,-0,-0.98,2.06,9.72,0,0,0,-0.9,2.05,9.54,1.50617814064026
,0,0.1,0.05,0.03,0.99,-0,0,0,-0.96,2.09,9.7,0,0,0,-0.9,2.05,9.54,1.52643275260925
,0,0.1,0.05,0.03,0.99,0,-0,0,-0.97,2.09,9.73,0,0,0,-0.9,2.05,9.54,1.5442361831665
,0,0.1,0.05,0.03,0.99,-0,-0,0,-0.97,2.08,9.74,0,0,0,-0.9,2.05,9.54,1.56201243400574
,0,0.1,0.05,0.03,0.99,0,0,-0,-0.99,2.1,9.73,0,0,0,-0.9,2.05,9.54,1.57835221290588
,0,0.1,0.05,0.03,0.99,0,0,0,-0.96,2.06,9.73,0,0,0,-0.9,2.05,9.54,1.59748864173889
,0,0.1,0.05,0.03,0.99,0,-0,0,-0.94,2.09,9.71,0,0,0,-0.9,2.05,9.54,1.61729049682617
,0,0.1,0.05,0.03,0.99,-0,0,-0,-0.98,2.07,9.73,0,0,0,-0.9,2.05,9.54,1.63524699211121
,0,0.1,0.05,0.03,0.99,0,-0,0,-0.98,2.06,9.71,0,0,0,-0.9,2.05,9.54,1.65570211410522
,0,0.1,0.05,0.03,0.99,0,0,-0,-0.97,2.08,9.72,0,0,0,-0.9,2.05,9.54,1.67616319656372
,0,0.1,0.05,0.03,0.99,0,0,0,-0.96,2.08,9.72,0,0,0,-0.9,2.05,9.54,1.69381403923035
,0,0.1,0.05,0.03,0.99,0,-0,-0,-0.98,2.06,9.72,0,0,0,-0.9,2.05,9.54,1.71062803268433
,0,0.1,0.05,0.03,0.99,0,-0,0,-0.96,2.08,9.71,0,0,0,-0.9,2.05,9.54,1.72862243652344
,0,0.1,0.05,0.03,0.99,0,0,-0,-0.97,2.09,9.73,0,0,0,-0.9,2.05,9.54,1.74729466438293
,0,0.1,0.05,0.03,0.99,0,-0,0,-0.97,2.11,9.7,0,0,0,-0.9,2.05,9.54,1.76787042617798
,0,0.1,0.05,0.03,0.99,0,0,0,-0.95,2.08,9.73,0,0,0,-0.9,2.05,9.54,1.78617596626282
,0,0.1,0.05,0.03,0.99,0,0,0,-0.96,2.09,9.72,0,0,0,-0.9,2.05,9.54,1.80647730827332
,0,0.1,0.05,0.03,0.99,0,0,0,-0.97,2.07,9.72,0,0,0,-0.9,2.05,9.54,1.82646989822388
,0,0.1,0.05,0.03,0.99,0,0,-0,-0.98,2.07,9.75,0,0,0,-0.9,2.05,9.54,1.84331321716309
,0,0.1,0.05,0.03,0.99,0,0,0,-0.96,2.08,9.71,0,0,0,-0.9,2.05,9.54,1.85988521575928
,0,0.1,0.05,0.03,0.99,0,0,0,-0.97,2.09,9.69,0,0,0,-0.9,2.05,9.54,1.87778067588806
,0,0.1,0.05,0.03,0.99,0,0,0,-0.98,2.09,9.71,0,0,0,-0.9,2.05,9.54,1.89678430557251
,0,0.1,0.05,0.03,0.99,0,0,0,-0.96,2.08,9.75,0,0,0,-0.9,2.05,9.54,1.91728091239929
,0,0.1,0.05,0.03,0.99,0,0,0,-0.97,2.09,9.73,0,0,0,-0.9,2.05,9.54,1.93640041351318
,0,0.1,0.05,0.03,0.99,0,-0,0,-0.96,2.09,9.71,0,0,0,-0.9,2.05,9.54,1.95655989646912
,0,0.1,0.05,0.03,0.99,0,0,0,-0.99,2.07,9.71,0,0,0,-0.9,2.05,9.54,1.97750973701477
,0,0.1,0.05,0.03,0.99,0,0,0,-0.96,2.07,9.75,0,0,0,-0.9,2.05,9.54,1.99649739265442
,0,0.1,0.05,0.03,0.99,0,0,0,-0.97,2.11,9.73,0,0,0,-0.9,2.05,9.54,2.01756620407104
,0,0.1,0.05,0.03,0.99,0,0,0,-0.97,2.07,9.74,0,0,0,-0.9,2.05,9.54,2.03566765785217
,0,0.1,0.05,0.03,0.99,0,-0,0,-0.98,2.07,9.7,0,0,0,-0.9,2.05,9.54,2.05633997917175
,0,0.1,0.05,0.03,0.99,0,0,0,-0.97,2.09,9.72,0,0,0,-0.9,2.05,9.54,2.07554483413696
,0,0.1,0.05,0.03,0.99,0,0,-0,-0.98,2.07,9.74,0,0,0,-0.9,2.05,9.54,2.09096455574036
,0,0.1,0.05,0.03,0.99,0,0,0,-0.98,2.08,9.71,0,0,0,-0.9,2.05,9.54,2.10857677459717
,0,0.1,0.05,0.03,0.99,-0,0,0,-0.98,2.09,9.7,0,0,0,-0.9,2.05,9.54,2.12850308418274
,0,0.1,0.05,0.03,0.99,-0,-0,0,-0.97,2.09,9.72,0,0,0,-0.9,2.05,9.54,2.14744853973389
,0,0.1,0.05,0.03,0.99,0,-0,-0,-0.98,2.08,9.73,0,0,0,-0.9,2.05,9.54,2.16759610176086
,0,0.1,0.05,0.03,0.99,0,-0,0,-0.99,2.07,9.71,0,0,0,-0.9,2.05,9.54,2.1864960193634
,0,0.1,0.05,0.03,0.99,0,0,0,-0.95,2.09,9.73,0,0,0,-0.9,2.05,9.54,2.20665693283081
,0,0.1,0.05,0.03,0.99,0,-0,0,-0.96,2.1,9.72,0,0,0,-0.9,2.05,9.54,2.22700452804565
,0,0.1,0.05,0.03,0.99,0,-0,0,-0.98,2.09,9.71,0,0,0,-0.9,2.05,9.54,2.24268555641174
,0,0.1,0.05,0.03,0.99,0,0,0,-0.99,2.08,9.75,0,0,0,-0.9,2.05,9.54,2.25925064086914
,0,0.1,0.05,0.03,0.99,0,0,0,-0.97,2.11,9.7,0,0,0,-0.9,2.05,9.54,2.27871203422546
,0,0.1,0.05,0.03,0.99,0,-0,0,-0.98,2.07,9.75,0,0,0,-0.9,2.05,9.54,2.29761815071106
,0,0.1,0.05,0.03,0.99,0,0,-0,-0.96,2.1,9.71,0,0,0,-0.9,2.05,9.54,2.31773138046265
,0,0.1,0.05,0.03,0.99,-0,0,-0,-0.94,2.09,9.74,0,0,0,-0.9,2.05,9.54,2.33660936355591
,0,0.1,0.05,0.03,0.99,0,-0,0,-0.98,2.11,9.71,0,0,0,-0.9,2.05,9.54,2.35690784454346
,0,0.1,0.05,0.03,0.99,-0,-0,0,-0.98,2.09,9.7,0,0,0,-0.9,2.05,9.54,2.37712025642395
,0,0.1,0.05,0.03,0.99,-0,0,-0,-0.97,2.08,9.72,0,0,0,-0.9,2.05,9.54,2.39289045333862
,0,0.1,0.05,0.03,0.99,0,-0,0,-0.97,2.08,9.7,0,0,0,-0.9,2.05,9.54,2.40952610969543
,0,0.1,0.05,0.03,0.99,-0,0,-0,-0.96,2.08,9.72,0,0,0,-0.9,2.05,9.54,2.42902684211731
,0,0.1,0.05,0.03,0.99,0,0,0,-0.96,2.07,9.73,0,0,0,-0.9,2.05,9.54,2.44772148132324
,0,0.1,0.05,0.03,0.99,0,0,0,-0.99,2.09,9.7,0,0,0,-0.9,2.05,9.54,2.46774125099182
,0,0.1,0.05,0.03,0.99,-0,0,0,-0.97,2.09,9.75,0,0,0,-0.9,2.05,9.54,2.48694944381714
,0,0.1,0.05,0.03,0.99,-0,-0,0,-0.97,2.09,9.73,0,0,0,-0.9,2.05,9.54,2.50655078887939
,0,0.1,0.05,0.03,0.99,-0,0,0,-0.96,2.1,9.72,0,0,0,-0.9,2.05,9.54,2.52533841133118
,0,0.1,0.05,0.03,0.99,-0,-0,0,-0.97,2.07,9.72,0,0,0,-0.9,2.05,9.54,2.5403003692627
,0,0.1,0.05,0.03,0.99,-0,0,0,-0.96,2.1,9.71,0,0,0,-0.9,2.05,9.54,2.55933904647827
,0,0.1,0.05,0.03,0.99,-0,0,0,-0.98,2.11,9.72,0,0,0,-0.9,2.05,9.54,2.57867479324341
,0,0.1,0.05,0.03,0.99,-0,0,-0,-0.99,2.07,9.71,0,0,0,-0.9,2.05,9.54,2.59727358818054
,0,0.1,0.05,0.03,0.99,0,0,0,-1,2.08,9.72,0,0,0,-0.9,2.05,9.54,2.61718344688416
,0,0.1,0.05,0.03,0.99,0,0,0,-0.97,2.1,9.7,0,0,0,-0.9,2.05,9.54,2.63476586341858
,0,0.1,0.05,0.03,0.99,-0,0,0,-0.98,2.07,9.72,0,0,0,-0.9,2.05,9.54,2.6506941318512
,0,0.1,0.05,0.03,0.99,-0,0.01,0,-0.98,2.08,9.72,0,0,0,-0.9,2.05,9.54,2.66941094398499
,0,0.1,0.05,0.03,0.99,0,-0,0,-0.96,2.08,9.73,0,0,0,-0.9,2.05,9.54,2.68769216537476
,0,0.1,0.05,0.03,0.99,-0,0,0,-0.97,2.08,9.74,0,0,0,-0.9,2.05,9.54,2.70827651023865
,0,0.1,0.05,0.03,0.99,-0,0,-0,-0.98,2.09,9.7,0,0,0,-0.9,2.05,9.54,2.72794795036316
,0,0.1,0.05,0.03,0.99,-0,0,-0,-0.98,2.08,9.72,0,0,0,-0.9,2.05,9.54,2.74525690078735
,0,0.1,0.05,0.03,0.99,0,-0,0,-0.97,2.09,9.7,0,0,0,-0.9,2.05,9.54,2.76051354408264
,0,0.1,0.05,0.03,0.99,-0,0,-0,-0.98,2.09,9.7,0,0,0,-0.9,2.05,9.54,2.77938842773438
,0,0.1,0.05,0.03,0.99,-0,0,0,-0.98,2.09,9.73,0,0,0,-0.9,2.05,9.54,2.79810571670532
,0,0.1,0.05,0.03,0.99,0,0,0,-0.98,2.1,9.72,0,0,0,-0.9,2.05,9.54,2.81785178184509
,0,0.1,0.05,0.03,0.99,0,0,-0,-0.97,2.08,9.7,0,0,0,-0.9,2.05,9.54,2.83635711669922
,0,0.1,0.05,0.03,0.99,0,0,-0,-0.96,2.1,9.71,0,0,0,-0.9,2.05,9.54,2.85116934776306
,0,0.1,0.05,0.03,0.99,-0,0,0,-0.99,2.08,9.72,0,0,0,-0.9,2.05,9.54,2.86934876441956
,0,0.1,0.05,0.03,0.99,-0,-0,-0,-0.98,2.1,9.73,0,0,0,-0.9,2.05,9.54,2.88835906982422
,0,0.1,0.05,0.03,0.99,-0,0,-0,-0.98,2.09,9.74,0,0,0,-0.9,2.05,9.54,2.90880393981934
,0,0.1,0.05,0.03,0.99,-0,0,0,-0.97,2.08,9.7,0,0,0,-0.9,2.05,9.54,2.92874717712402
,0,0.1,0.05,0.03,0.99,-0,0,0,-0.97,2.08,9.72,0,0,0,-0.9,2.05,9.54,2.94509720802307
,0,0.1,0.05,0.03,0.99,0,0,-0,-0.97,2.11,9.75,0,0,0,-0.9,2.05,9.54,2.96045804023743
,0,0.1,0.05,0.03,0.99,-0,-0,0,-0.96,2.09,9.71,0,0,0,-0.9,2.05,9.54,2.9804220199585
,0,0.1,0.05,0.03,0.99,0,0,0,-1,2.08,9.73,0,0,0,-0.9,2.05,9.54,2.99792313575745
,0,0.1,0.05,0.03,0.99,-0,0,-0,-0.98,2.1,9.74,0,0,0,-0.9,2.05,9.54,3.01659297943115
,0,0.1,0.05,0.03,0.99,-0,-0,0,-0.99,2.08,9.7,0,0,0,-0.9,2.05,9.54,3.0315797328949
,0,0.1,0.05,0.03,0.99,0,0,0,-0.98,2.08,9.69,0,0,0,-0.9,2.05,9.54,3.04926300048828
,0,0.1,0.05,0.03,0.99,0,0,-0,-0.98,2.11,9.71,0,0,0,-0.9,2.05,9.54,3.06870913505554
,0,0.1,0.05,0.03,0.99,0,0,0,-0.98,2.08,9.73,0,0,0,-0.9,2.05,9.54,3.08654689788818
,0,0.1,0.05,0.03,0.99,0,-0,0,-0.96,2.07,9.72,0,0,0,-0.9,2.05,9.54,3.10141015052795
,0,0.1,0.05,0.03,0.99,0,0,-0,-0.97,2.07,9.72,0,0,0,-0.9,2.05,9.54,3.1199734210968
,0,0.1,0.05,0.03,0.99,0,0,-0,-0.95,2.09,9.73,0,0,0,-0.9,2.05,9.54,3.13896059989929
,0,0.1,0.05,0.03,0.99,-0,0,0,-0.99,2.07,9.72,0,0,0,-0.9,2.05,9.54,3.15893530845642
,0,0.1,0.05,0.03,0.99,0,-0,0,-0.96,2.09,9.7,0,0,0,-0.9,2.05,9.54,3.17867803573608
,0,0.1,0.05,0.03,0.99,0,0,0,-0.98,2.07,9.71,0,0,0,-0.9,2.05,9.54,3.19501805305481
,0,0.1,0.05,0.03,0.99,0,0,0,-0.98,2.07,9.71,0,0,0,-0.9,2.05,9.54,3.21102476119995
,0,0.1,0.05,0.03,0.99,0,0,-0,-0.99,2.1,9.71,0,0,0,-0.9,2.05,9.54,3.22985482215881
,0,0.1,0.05,0.03,0.99,0,0,0,-0.97,2.06,9.7,0,0,0,-0.9,2.05,9.54,3.24721217155457
,0,0.1,0.05,0.03,0.99,0,0,0,-0.98,2.07,9.7,0,0,0,-0.9,2.05,9.54,3.26480579376221
,0,0.1,0.05,0.03,0.99,0,-0,0,-0.97,2.11,9.7,0,0,0,-0.9,2.05,9.54,3.28130841255188
,0,0.1,0.05,0.03,0.99,-0,0,0,-0.98,2.09,9.7,0,0,0,-0.9,2.05,9.54,3.29894661903381
,0,0.1,0.05,0.03,0.99,0,-0,0,-0.97,2.08,9.74,0,0,0,-0.9,2.05,9.54,3.31844782829285
,0,0.1,0.05,0.03,0.99,0,0,0,-0.96,2.09,9.71,0,0,0,-0.9,2.05,9.54,3.33405542373657
,0,0.1,0.05,0.03,0.99,-0,0,-0,-0.96,2.09,9.73,0,0,0,-0.9,2.05,9.54,3.35079479217529
,0,0.1,0.05,0.03,0.99,0,0,-0,-0.97,2.07,9.71,0,0,0,-0.9,2.05,9.54,3.3696300983429
,0,0.1,0.05,0.03,0.99,0,-0,-0,-0.97,2.08,9.73,0,0,0,-0.9,2.05,9.54,3.38782835006714
,0,0.1,0.05,0.03,0.99,0,0,0,-0.97,2.09,9.72,0,0,0,-0.9,2.05,9.54,3.40425539016724
,0,0.1,0.05,0.03,0.99,-0,0,0,-0.97,2.08,9.75,0,0,0,-0.9,2.05,9.54,3.42121052742004
,0,0.1,0.05,0.03,0.99,0,0,0,-0.98,2.06,9.74,0,0,0,-0.9,2.05,9.54,3.4398627281189
,0,0.1,0.05,0.03,0.99,0,-0,0,-0.96,2.09,9.73,0,0,0,-0.9,2.05,9.54,3.45919561386108
,0,0.1,0.05,0.03,0.99,0,-0,0,-0.98,2.08,9.69,0,0,0,-0.9,2.05,9.54,3.47855877876282
,0,0.1,0.05,0.03,0.99,0,0,0,-0.97,2.08,9.71,0,0,0,-0.9,2.05,9.54,3.49532151222229
,0,0.1,0.05,0.03,0.99,0,0,-0,-0.96,2.08,9.73,0,0,0,-0.9,2.05,9.54,3.51201915740967
,0,0.1,0.05,0.03,0.99,-0,0,-0,-0.97,2.07,9.71,0,0,0,-0.9,2.05,9.54,3.53076577186584
,0,0.1,0.05,0.03,0.99,0,-0,0,-0.96,2.08,9.74,0,0,0,-0.9,2.05,9.54,3.54798746109009
,0,0.1,0.05,0.03,0.99,0,0,-0,-0.97,2.09,9.7,0,0,0,-0.9,2.05,9.54,3.56423830986023
,0,0.1,0.05,0.03,0.99,-0,0,-0,-0.96,2.08,9.7,0,0,0,-0.9,2.05,9.54,3.581383228302
,0,0.1,0.05,0.03,0.99,-0,0,-0,-0.99,2.05,9.73,0,0,0,-0.9,2.05,9.54,3.59868741035461
,0,0.1,0.05,0.03,0.99,-0,0,-0,-0.97,2.08,9.71,0,0,0,-0.9,2.05,9.54,3.61729526519775
,0,0.1,0.05,0.03,0.99,0,0,0,-0.98,2.08,9.71,0,0,0,-0.9,2.05,9.54,3.63207316398621
,0,0.1,0.05,0.03,0.99,0,0,0,-0.97,2.06,9.74,0,0,0,-0.9,2.05,9.54,3.64953565597534
,0,0.1,0.05,0.03,0.99,0,0,0,-0.96,2.09,9.75,0,0,0,-0.9,2.05,9.54,3.66852498054504
,0,0.1,0.05,0.03,0.99,0,0,0,-0.97,2.08,9.72,0,0,0,-0.9,2.05,9.54,3.68371987342834
,0,0.1,0.05,0.03,0.99,-0,0,-0,-0.97,2.06,9.73,0,0,0,-0.9,2.05,9.54,3.70017170906067
,0,0.1,0.05,0.03,0.99,0,0,0,-0.99,2.08,9.7,0,0,0,-0.9,2.05,9.54,3.71936941146851
,0,0.1,0.05,0.03,0.99,0,0,0,-0.97,2.1,9.72,0,0,0,-0.9,2.05,9.54,3.73468589782715
,0,0.1,0.05,0.03,0.99,0,0,-0,-0.98,2.09,9.72,0,0,0,-0.9,2.05,9.54,3.75152945518494
,0,0.1,0.05,0.03,0.99,0,0,0,-0.98,2.06,9.72,0,0,0,-0.9,2.05,9.54,3.77048230171204
,0,0.1,0.05,0.03,0.99,0,0,-0,-0.97,2.06,9.72,0,0,0,-0.9,2.05,9.54,3.7870032787323
,0,0.1,0.05,0.03,0.99,0,-0,0,-0.96,2.08,9.72,0,0,0,-0.9,2.05,9.54,3.80407404899597
,0,0.1,0.05,0.03,0.99,0,-0,0,-0.97,2.09,9.74,0,0,0,-0.9,2.05,9.54,3.82152652740479
,0,0.1,0.05,0.03,0.99,0,0,0,-0.96,2.09,9.73,0,0,0,-0.9,2.05,9.54,3.8403913974762
,0,0.1,0.05,0.03,0.99,0,-0,-0,-0.96,2.09,9.74,0,0,0,-0.9,2.05,9.54,3.85875177383423
,0,0.1,0.05,0.03,0.99,-0,0,-0,-0.96,2.1,9.7,0,0,0,-0.9,2.05,9.54,3.87656450271606
,0,0.1,0.05,0.03,0.99,-0,0,0,-0.96,2.08,9.72,0,0,0,-0.9,2.05,9.54,3.89398908615112
,0,0.1,0.05,0.03,0.99,0,0,-0,-0.97,2.06,9.69,0,0,0,-0.9,2.05,9.54,3.91197085380554
,0,0.1,0.05,0.03,0.99,0,0,-0,-0.97,2.06,9.71,0,0,0,-0.9,2.05,9.54,3.93065118789673
,0,0.1,0.05,0.03,0.99,0,0,0,-0.97,2.09,9.72,0,0,0,-0.9,2.05,9.54,3.94754266738892
,0,0.1,0.05,0.03,0.99,0,0,-0,-0.96,2.09,9.73,0,0,0,-0.9,2.05,9.54,3.96499276161194
,0,0.1,0.05,0.03,0.99,0,0,0,-0.98,2.09,9.71,0,0,0,-0.9,2.05,9.54,3.98209071159363
,0,0.1,0.05,0.03,0.99,0,-0,-0,-0.96,2.1,9.73,0,0,0,-0.9,2.05,9.54,3.99930953979492
,0,0.1,0.05,0.03,0.99,-0,-0,0,-0.96,2.11,9.69,0,0,0,-0.9,2.05,9.54,4.01609659194946
,0,0.1,0.05,0.03,0.99,0,-0,0,-0.97,2.07,9.7,0,0,0,-0.9,2.05,9.54,4.03261256217957
,0,0.1,0.05,0.03,0.99,-0,0,0,-0.99,2.09,9.73,0,0,0,-0.9,2.05,9.54,4.0491030216217
,0,0.1,0.05,0.03,0.99,0,-0,0,-0.98,2.09,9.75,0,0,0,-0.9,2.05,9.54,4.06656432151794
,0,0.1,0.05,0.03,0.99,0,-0,0,-0.97,2.06,9.71,0,0,0,-0.9,2.05,9.54,4.08292031288147
,0,0.1,0.05,0.03,0.99,0,-0,0,-0.98,2.07,9.73,0,0,0,-0.9,2.05,9.54,4.09983205795288
,0,0.1,0.05,0.03,0.99,0,-0,0,-0.99,2.08,9.69,0,0,0,-0.9,2.05,9.54,4.11677050590515
,0,0.1,0.05,0.03,0.99,0,-0,0,-0.99,2.07,9.71,0,0,0,-0.9,2.05,9.54,4.13306188583374
,0,0.1,0.05,0.03,0.99,0,0,0,-0.98,2.09,9.71,0,0,0,-0.9,2.05,9.54,4.14977288246155
,0,0.1,0.05,0.03,0.99,-0,0,0,-0.98,2.08,9.71,0,0,0,-0.9,2.05,9.54,4.16749596595764
,0,0.1,0.05,0.03,0.99,0,0,0,-0.96,2.08,9.7,0,0,0,-0.9,2.05,9.54,4.18379139900208
,0,0.1,0.05,0.03,0.99,0,-0,-0,-0.97,2.09,9.72,0,0,0,-0.9,2.05,9.54,4.19977998733521
,0,0.1,0.05,0.03,0.99,0,0,0,-0.97,2.08,9.72,0,0,0,-0.9,2.05,9.54,4.2175931930542
,0,0.1,0.05,0.03,0.99,0,-0,0,-0.97,2.09,9.71,0,0,0,-0.9,2.05,9.54,4.23313498497009
,0,0.1,0.05,0.03,0.99,0,-0,0,-0.98,2.08,9.7,0,0,0,-0.9,2.05,9.54,4.24963641166687
,0,0.1,0.05,0.03,0.99,0,-0,-0,-0.98,2.07,9.71,0,0,0,-0.9,2.05,9.54,4.26795101165771
,0,0.1,0.05,0.03,0.99,-0,-0,-0,-0.98,2.08,9.7,0,0,0,-0.9,2.05,9.54,4.28364872932434
,0,0.1,0.05,0.03,0.99,0,0,0,-0.99,2.09,9.72,0,0,0,-0.9,2.05,9.54,4.30043911933899
,0,0.1,0.05,0.03,0.99,0,0,-0,-0.97,2.09,9.71,0,0,0,-0.9,2.05,9.54,4.31819939613342
,0,0.1,0.05,0.03,0.99,-0,0,-0,-0.96,2.07,9.72,0,0,0,-0.9,2.05,9.54,4.33375549316406
,0,0.1,0.05,0.03,0.99,0,-0,-0,-0.97,2.08,9.73,0,0,0,-0.9,2.05,9.54,4.3503851890564
,0,0.1,0.05,0.03,0.99,0,0,-0,-0.97,2.09,9.76,0,0,0,-0.9,2.05,9.54,4.3679563999176
,0,0.1,0.05,0.03,0.99,-0,0,-0,-0.98,2.06,9.69,0,0,0,-0.9,2.05,9.54,4.38420033454895
,0,0.1,0.05,0.03,0.99,0,0,0,-1,2.08,9.72,0,0,0,-0.9,2.05,9.54,4.40057158470154
,0,0.1,0.05,0.03,0.99,0,0,0,-0.98,2.07,9.72,0,0,0,-0.9,2.05,9.54,4.41773748397827
,0,0.1,0.05,0.03,0.99,0,0,-0,-0.98,2.09,9.7,0,0,0,-0.9,2.05,9.54,4.433922290802
,0,0.1,0.05,0.03,0.99,-0,-0,0,-0.98,2.08,9.71,0,0,0,-0.9,2.05,9.54,4.45008373260498
,0,0.1,0.05,0.03,0.99,0,-0,0,-0.95,2.09,9.7,0,0,0,-0.9,2.05,9.54,4.46823787689209
,0,0.1,0.05,0.03,0.99,0,-0,0,-0.97,2.09,9.72,0,0,0,-0.9,2.05,9.54,4.48386549949646
,0,0.1,0.05,0.03,0.99,0,-0,0,-0.99,2.08,9.71,0,0,0,-0.9,2.05,9.54,4.50019788742065
,0,0.1,0.05,0.03,0.99,-0,0,-0,-0.98,2.07,9.72,0,0,0,-0.9,2.05,9.54,4.51853394508362
,0,0.1,0.05,0.03,0.99,-0,0,-0,-0.98,2.08,9.71,0,0,0,-0.9,2.05,9.54,4.53459858894348
,0,0.1,0.05,0.03,0.99,-0,0,0,-0.96,2.06,9.73,0,0,0,-0.9,2.05,9.54,4.55063891410828
,0,0.1,0.05,0.03,0.99,0,-0,0,-0.97,2.1,9.73,0,0,0,-0.9,2.05,9.54,4.56854605674744
,0,0.1,0.05,0.03,0.99,-0,0,0,-0.97,2.09,9.7,0,0,0,-0.9,2.05,9.54,4.58438420295715
,0,0.1,0.05,0.03,0.99,0,0,0,-0.97,2.07,9.7,0,0,0,-0.9,2.05,9.54,4.60070753097534
,0,0.1,0.05,0.03,0.99,-0,0.01,0,-1,2.07,9.7,0,0,0,-0.9,2.05,9.54,4.61836242675781
,0,0.1,0.05,0.03,0.99,0,-0,0,-0.99,2.09,9.72,0,0,0,-0.9,2.05,9.54,4.6343252658844
,0,0.1,0.05,0.03,0.99,0,-0,0,-0.98,2.08,9.71,0,0,0,-0.9,2.05,9.54,4.65058946609497
,0,0.1,0.05,0.03,0.99,-0,-0,0,-0.97,2.07,9.7,0,0,0,-0.9,2.05,9.54,4.66842198371887
,0,0.1,0.05,0.03,0.99,-0,0,0,-0.98,2.11,9.71,0,0,0,-0.9,2.05,9.54,4.68463969230652
,0,0.1,0.05,0.03,0.99,-0,0,0,-0.98,2.07,9.71,0,0,0,-0.9,2.05,9.54,4.70114159584045
,0,0.1,0.05,0.03,0.99,0,0,0,-0.97,2.08,9.73,0,0,0,-0.9,2.05,9.54,4.71906781196594
,0,0.1,0.05,0.03,0.99,0,0,0,-0.97,2.07,9.73,0,0,0,-0.9,2.05,9.54,4.73497104644775
,0,0.1,0.05,0.03,0.99,0,-0,0,-0.97,2.09,9.73,0,0,0,-0.9,2.05,9.54,4.75108289718628
,0,0.1,0.05,0.03,0.99,0,0,0,-0.98,2.11,9.75,0,0,0,-0.9,2.05,9.54,4.76887512207031
,0,0.1,0.05,0.03,0.99,0,-0,0,-0.98,2.09,9.7,0,0,0,-0.9,2.05,9.54,4.78507018089294
,0,0.1,0.05,0.03,0.99,0,0,0,-0.97,2.08,9.7,0,0,0,-0.9,2.05,9.54,4.80095100402832
,0,0.1,0.05,0.03,0.99,0,0,0,-0.98,2.07,9.73,0,0,0,-0.9,2.05,9.54,4.81871962547302
,0,0.1,0.05,0.03,0.99,0,-0,0,-0.96,2.09,9.73,0,0,0,-0.9,2.05,9.54,4.83518481254578
,0,0.1,0.05,0.03,0.99,0,0,-0,-0.96,2.09,9.71,0,0,0,-0.9,2.05,9.54,4.85111308097839
,0,0.1,0.05,0.03,0.99,0,0,0,-0.99,2.09,9.75,0,0,0,-0.9,2.05,9.54,4.86969113349915
,0,0.1,0.05,0.03,0.99,0,-0,0,-0.99,2.08,9.71,0,0,0,-0.9,2.05,9.54,4.88550877571106
,0,0.1,0.05,0.03,0.99,0,-0,0,-0.97,2.08,9.72,0,0,0,-0.9,2.05,9.54,4.90076184272766
,0,0.1,0.05,0.03,0.99,0,-0,0,-0.97,2.09,9.74,0,0,0,-0.9,2.05,9.54,4.91916537284851
,0,0.1,0.05,0.03,0.99,0,0.01,-0,-0.97,2.08,9.72,0,0,0,-0.9,2.05,9.54,4.9352867603302
,0,0.1,0.05,0.03,0.99,0,-0,0,-0.97,2.09,9.73,0,0,0,-0.9,2.05,9.54,4.95142102241516
,0,0.1,0.05,0.03,0.99,0,-0,0,-0.97,2.07,9.72,0,0,0,-0.9,2.05,9.54,4.96940350532532
,0,0.1,0.05,0.03,0.99,0,-0,0,-0.97,2.1,9.71,0,0,0,-0.9,2.05,9.54,4.98554873466492
,0,0.1,0.05,0.03,0.99,0,-0,0,-0.96,2.09,9.72,0,0,0,-0.9,2.05,9.54,5.00070118904114
,0,0.1,0.05,0.03,0.99,0,0,-0,-0.98,2.1,9.72,0,0,0,-0.9,2.05,9.54,5.01938033103943
,0,0.1,0.05,0.03,0.99,-0,-0,0,-0.97,2.08,9.71,0,0,0,-0.9,2.05,9.54,5.03596472740173
,0,0.1,0.05,0.03,0.99,0,-0,0,-0.98,2.09,9.72,0,0,0,-0.9,2.05,9.54,5.05345964431763
,0,0.1,0.05,0.03,0.99,0,-0,0,-0.97,2.09,9.73,0,0,0,-0.9,2.05,9.54,5.06966972351074
,0,0.1,0.05,0.03,0.99,0,0,0,-0.98,2.09,9.71,0,0,0,-0.9,2.05,9.54,5.08591985702515
,0,0.1,0.05,0.03,0.99,0,0,0,-0.99,2.1,9.72,0,0,0,-0.9,2.05,9.54,5.1012704372406
,0,0.1,0.05,0.03,0.99,-0,-0,0,-0.98,2.08,9.72,0,0,0,-0.9,2.05,9.54,5.11995935440063
,0,0.1,0.05,0.03,0.99,0,0,0,-0.98,2.08,9.7,0,0,0,-0.9,2.05,9.54,5.13647294044495
,0,0.1,0.05,0.03,0.99,0,0,-0,-0.99,2.08,9.72,0,0,0,-0.9,2.05,9.54,5.152348279953
,0,0.1,0.05,0.03,0.99,0,0,-0,-0.98,2.08,9.77,0,0,0,-0.9,2.05,9.54,5.17043972015381
,0,0.1,0.05,0.03,0.99,0,-0,-0,-0.99,2.08,9.7,0,0,0,-0.9,2.05,9.54,5.18680572509766
,0,0.1,0.05,0.03,0.99,0,-0,0,-0.98,2.08,9.73,0,0,0,-0.9,2.05,9.54,5.20225191116333
,0,0.1,0.05,0.03,0.99,0,-0,0,-0.99,2.09,9.72,0,0,0,-0.9,2.05,9.54,5.22013378143311
,0,0.1,0.05,0.03,0.99,0,-0,-0,-1,2.08,9.71,0,0,0,-0.9,2.05,9.54,5.23738026618958
,0,0.1,0.05,0.03,0.99,-0,0,-0,-0.97,2.08,9.73,0,0,0,-0.9,2.05,9.54,5.25279021263123
,0,0.1,0.05,0.03,0.99,-0,0,0,-0.98,2.09,9.71,0,0,0,-0.9,2.05,9.54,5.27067470550537
,0,0.1,0.05,0.03,0.99,-0,0,0,-0.97,2.11,9.7,0,0,0,-0.9,2.05,9.54,5.28692674636841
,0,0.1,0.05,0.03,0.99,-0,0,0,-0.96,2.07,9.71,0,0,0,-0.9,2.05,9.54,5.3030378818512
,0,0.1,0.05,0.03,0.99,-0,0,-0,-0.98,2.08,9.74,0,0,0,-0.9,2.05,9.54,5.32046842575073
,0,0.1,0.05,0.03,0.99,-0,0,0,-0.96,2.08,9.72,0,0,0,-0.9,2.05,9.54,5.33769273757935
,0,0.1,0.05,0.03,0.99,-0,0,-0,-0.97,2.08,9.72,0,0,0,-0.9,2.05,9.54,5.3533718585968
,0,0.1,0.05,0.03,0.99,0,-0,-0,-1,2.09,9.74,0,0,0,-0.9,2.05,9.54,5.37036800384521
,0,0.1,0.05,0.03,0.99,-0,0,0,-0.99,2.1,9.72,0,0,0,-0.9,2.05,9.54,5.3883204460144
,0,0.1,0.05,0.03,0.99,-0,-0,-0,-0.98,2.08,9.71,0,0,0,-0.9,2.05,9.54,5.40557503700256
,0,0.1,0.05,0.03,0.99,-0,-0,0,-0.97,2.07,9.75,0,0,0,-0.9,2.05,9.54,5.42174768447876
,0,0.1,0.05,0.03,0.99,-0,-0,0,-0.98,2.08,9.72,0,0,0,-0.9,2.05,9.54,5.43839740753174
,0,0.1,0.05,0.03,0.99,-0,-0,0,-0.98,2.07,9.71,0,0,0,-0.9,2.05,9.54,5.45743227005005
,0,0.1,0.05,0.03,0.99,0,0,0,-0.96,2.08,9.71,0,0,0,-0.9,2.05,9.54,5.47637534141541
,0,0.1,0.05,0.03,0.99,0,0,-0,-0.96,2.08,9.7,0,0,0,-0.9,2.05,9.54,5.49468731880188
,0,0.1,0.05,0.03,0.99,0,0,0,-0.98,2.1,9.71,0,0,0,-0.9,2.05,9.54,5.51167392730713
,0,0.1,0.05,0.03,0.99,-0,0,0,-0.97,2.08,9.7,0,0,0,-0.9,2.05,9.54,5.53029227256775
,0,0.1,0.05,0.03,0.99,-0,-0,0,-0.97,2.08,9.69,0,0,0,-0.9,2.05,9.54,5.54966020584106
,0,0.1,0.05,0.03,0.99,0,0,0,-0.97,2.1,9.71,0,0,0,-0.9,2.05,9.54,5.56967973709106
,0,0.1,0.05,0.03,0.99,0,-0,0,-0.98,2.08,9.71,0,0,0,-0.9,2.05,9.54,5.58774709701538
,0,0.1,0.05,0.03,0.99,0,0,0,-0.96,2.08,9.74,0,0,0,-0.9,2.05,9.54,5.60247659683228
,0,0.1,0.05,0.03,0.99,0,0,0,-0.96,2.06,9.7,0,0,0,-0.9,2.05,9.54,5.62041139602661
,0,0.1,0.05,0.03,0.99,0,-0,0,-0.98,2.1,9.69,0,0,0,-0.9,2.05,9.54,5.63837671279907
,0,0.1,0.05,0.03,0.99,0,-0,0,-0.98,2.09,9.71,0,0,0,-0.9,2.05,9.54,5.6544029712677
,0,0.1,0.05,0.03,0.99,0,-0,0,-0.97,2.08,9.7,0,0,0,-0.9,2.05,9.54,5.67137026786804
,0,0.1,0.05,0.03,0.99,0,0,0,-0.97,2.07,9.7,0,0,0,-0.9,2.05,9.54,5.68853282928467
,0,0.1,0.05,0.03,0.99,0,0,0,-0.98,2.08,9.71,0,0,0,-0.9,2.05,9.54,5.70558667182922
,0,0.1,0.05,0.03,0.99,0,-0,0,-0.99,2.08,9.72,0,0,0,-0.9,2.05,9.54,5.72236919403076
,0,0.1,0.05,0.03,0.99,0,0,0,-0.98,2.1,9.71,0,0,0,-0.9,2.05,9.54,5.73972868919373
,0,0.1,0.05,0.03,0.99,0,0,-0,-0.97,2.08,9.71,0,0,0,-0.9,2.05,9.54,5.75741052627563
,0,0.1,0.05,0.03,0.99,0,-0,0,-0.98,2.07,9.72,0,0,0,-0.9,2.05,9.54,5.77794027328491
,0,0.1,0.05,0.03,0.99,0,-0,-0,-0.96,2.08,9.72,0,0,0,-0.9,2.05,9.54,5.79692554473877
,0,0.1,0.05,0.03,0.99,0,-0.01,0,-0.97,2.09,9.73,0,0,0,-0.9,2.05,9.54,5.81276178359985
,0,0.1,0.05,0.03,0.99,0,-0,-0,-0.97,2.06,9.72,0,0,0,-0.9,2.05,9.54,5.83141112327576
,0,0.1,0.05,0.03,0.99,0,-0,-0,-0.99,2.09,9.71,0,0,0,-0.9,2.05,9.54,5.85057497024536
,0,0.1,0.05,0.03,0.99,0,-0,0,-0.98,2.09,9.7,0,0,0,-0.9,2.05,9.54,5.87011361122131
,0,0.1,0.05,0.03,0.99,0,0,0,-0.98,2.08,9.69,0,0,0,-0.9,2.05,9.54,5.88849425315857
,0,0.1,0.05,0.03,0.99,0,-0,-0,-0.98,2.06,9.71,0,0,0,-0.9,2.05,9.54,5.90360593795776
,0,0.1,0.05,0.03,0.99,0,-0,0,-0.98,2.09,9.75,0,0,0,-0.9,2.05,9.54,5.92162656784058
,0,0.1,0.05,0.03,0.99,0,-0,0,-0.98,2.07,9.71,0,0,0,-0.9,2.05,9.54,5.93894290924072
,0,0.1,0.05,0.03,0.99,0,0,0,-0.97,2.09,9.73,0,0,0,-0.9,2.05,9.54,5.95551538467407
,0,0.1,0.05,0.03,0.99,0,0,0,-0.98,2.08,9.7,0,0,0,-0.9,2.05,9.54,5.97187066078186
,0,0.1,0.05,0.03,0.99,0,0,-0,-0.96,2.08,9.72,0,0,0,-0.9,2.05,9.54,5.98993825912476
,0,0.1,0.05,0.03,0.99,0,-0,0,-0.96,2.1,9.72,0,0,0,-0.9,2.05,9.54,6.00822138786316
,0,0.1,0.05,0.03,0.99,0,0,0,-0.97,2.08,9.71,0,0,0,-0.9,2.05,9.54,6.02681112289429
,0,0.1,0.05,0.03,0.99,0,-0,0,-0.98,2.08,9.74,0,0,0,-0.9,2.05,9.54,6.04337430000305
,0,0.1,0.05,0.03,0.99,0,-0,0,-0.98,2.08,9.71,0,0,0,-0.9,2.05,9.54,6.06077122688293
,0,0.1,0.05,0.03,0.99,0,0,0,-0.98,2.11,9.74,0,0,0,-0.9,2.05,9.54,6.08065962791443
,0,0.1,0.05,0.03,0.99,-0,-0,0,-0.97,2.08,9.74,0,0,0,-0.9,2.05,9.54,6.10081696510315
,0,0.1,0.05,0.03,0.99,-0,-0,-0,-0.98,2.08,9.72,0,0,0,-0.9,2.05,9.54,6.12071013450623
,0,0.1,0.05,0.03,0.99,0,-0,0,-0.98,2.09,9.7,0,0,0,-0.9,2.05,9.54,6.13890600204468
,0,0.1,0.05,0.03,0.99,-0,0,0,-0.99,2.1,9.71,0,0,0,-0.9,2.05,9.54,6.15448069572449
,0,0.1,0.05,0.03,0.99,0,0,0,-0.98,2.08,9.72,0,0,0,-0.9,2.05,9.54,6.17171835899353
,0,0.1,0.05,0.03,0.99,0,-0,0,-0.97,2.07,9.71,0,0,0,-0.9,2.05,9.54,6.19009852409363
,0,0.1,0.05,0.03,0.99,0,-0,0,-0.99,2.09,9.73,0,0,0,-0.9,2.05,9.54,6.20600819587708
,0,0.1,0.05,0.03,0.99,-0,-0,-0,-0.97,2.08,9.73,0,0,0,-0.9,2.05,9.54,6.22242975234985
,0,0.1,0.05,0.03,0.99,-0,-0,0,-0.98,2.08,9.73,0,0,0,-0.9,2.05,9.54,6.24038553237915
,0,0.1,0.05,0.03,0.99,0,-0,0,-0.98,2.09,9.72,0,0,0,-0.9,2.05,9.54,6.25782918930054
,0,0.1,0.05,0.03,0.99,0,-0,0,-0.98,2.1,9.7,0,0,0,-0.9,2.05,9.54,6.27559375762939
,0,0.1,0.05,0.03,0.99,0,-0,-0,-0.98,2.07,9.73,0,0,0,-0.9,2.05,9.54,6.29164409637451
,0,0.1,0.05,0.03,0.99,0,0,0,-0.98,2.09,9.72,0,0,0,-0.9,2.05,9.54,6.31057834625244
,0,0.1,0.05,0.03,0.99,0,0,0,-0.97,2.09,9.74,0,0,0,-0.9,2.05,9.54,6.3311927318573
,0,0.1,0.05,0.03,0.99,0,-0,0,-0.97,2.08,9.7,0,0,0,-0.9,2.05,9.54,6.35084295272827
,0,0.1,0.05,0.03,0.99,0,-0,0,-1,2.09,9.7,0,0,0,-0.9,2.05,9.54,6.37081694602966
,0,0.1,0.05,0.03,0.99,0,0,0,-0.98,2.09,9.71,0,0,0,-0.9,2.05,9.54,6.38953971862793
,0,0.1,0.05,0.03,0.99,-0,-0,0,-0.99,2.1,9.71,0,0,0,-0.9,2.05,9.54,6.40586543083191
,0,0.1,0.05,0.03,0.99,0,-0,-0,-0.96,2.09,9.71,0,0,0,-0.9,2.05,9.54,6.4223473072052
,0,0.1,0.05,0.03,0.99,0,-0,0,-0.95,2.12,9.7,0,0,0,-0.9,2.05,9.54,6.44066429138184
,0,0.1,0.05,0.03,0.99,0,-0,0,-0.99,2.09,9.71,0,0,0,-0.9,2.05,9.54,6.4580442905426
,0,0.1,0.05,0.03,0.99,0,0,-0,-0.97,2.11,9.7,0,0,0,-0.9,2.05,9.54,6.47407341003418
,0,0.1,0.05,0.03,0.99,-0,0,0,-0.97,2.09,9.71,0,0,0,-0.9,2.05,9.54,6.49146175384521
,0,0.1,0.05,0.03,0.99,-0,0,0,-0.99,2.08,9.73,0,0,0,-0.9,2.05,9.54,6.50968241691589
,0,0.1,0.05,0.03,0.99,-0,0.01,0,-0.97,2.1,9.72,0,0,0,-0.9,2.05,9.54,6.53043842315674
,0,0.1,0.05,0.03,0.99,0,0,-0,-0.98,2.09,9.72,0,0,0,-0.9,2.05,9.54,6.55092620849609
,0,0.1,0.05,0.03,0.99,0,-0,0,-0.98,2.1,9.72,0,0,0,-0.9,2.05,9.54,6.57087373733521
,0,0.1,0.05,0.03,0.99,-0,0,0,-0.99,2.08,9.68,0,0,0,-0.9,2.05,9.54,6.58966040611267
,0,0.1,0.05,0.03,0.99,-0,0,0,-1,2.07,9.72,0,0,0,-0.9,2.05,9.54,6.60533976554871
,0,0.1,0.05,0.03,0.99,0,0,0,-0.98,2.1,9.7,0,0,0,-0.9,2.05,9.54,6.6217896938324
,0,0.1,0.05,0.03,0.99,0,0,0,-0.99,2.1,9.69,0,0,0,-0.9,2.05,9.54,6.64023399353027
,0,0.1,0.05,0.03,0.99,-0,0,-0,-0.98,2.09,9.72,0,0,0,-0.9,2.05,9.54,6.65666317939758
,0,0.1,0.05,0.03,0.99,0,0,0,-0.97,2.08,9.72,0,0,0,-0.9,2.05,9.54,6.67265200614929
,0,0.1,0.05,0.03,0.99,-0,0,0,-0.97,2.1,9.7,0,0,0,-0.9,2.05,9.54,6.69094228744507
,0,0.1,0.05,0.03,0.99,-0,0,-0,-0.98,2.08,9.71,0,0,0,-0.9,2.05,9.54,6.70902156829834
,0,0.1,0.05,0.03,0.99,0,0,-0,-0.98,2.09,9.73,0,0,0,-0.9,2.05,9.54,6.72545623779297
,0,0.1,0.05,0.03,0.99,-0,-0,0,-0.98,2.09,9.7,0,0,0,-0.9,2.05,9.54,6.74273443222046
,0,0.1,0.05,0.03,0.99,-0,-0,0,-0.99,2.08,9.75,0,0,0,-0.9,2.05,9.54,6.7611608505249
,0,0.1,0.05,0.03,0.99,0,-0,0,-0.96,2.07,9.73,0,0,0,-0.9,2.05,9.54,6.78149032592773
,0,0.1,0.05,0.03,0.99,-0,0,-0,-0.97,2.07,9.72,0,0,0,-0.9,2.05,9.54,6.80132579803467
,0,0.1,0.05,0.03,0.99,0,0,-0,-0.97,2.08,9.73,0,0,0,-0.9,2.05,9.54,6.8212468624115
,0,0.1,0.05,0.03,0.99,0,0,-0,-0.98,2.08,9.7,0,0,0,-0.9,2.05,9.54,6.84023070335388
,0,0.1,0.05,0.03,0.99,-0,-0,0,-0.98,2.07,9.73,0,0,0,-0.9,2.05,9.54,6.8561999797821
,0,0.1,0.05,0.03,0.99,0,0,-0,-0.97,2.09,9.73,0,0,0,-0.9,2.05,9.54,6.87303280830383
,0,0.1,0.05,0.03,0.99,-0,0,0,-0.96,2.07,9.72,0,0,0,-0.9,2.05,9.54,6.89141607284546
,0,0.1,0.05,0.03,0.99,-0,0,0,-0.95,2.1,9.7,0,0,0,-0.9,2.05,9.54,6.90800595283508
,0,0.1,0.05,0.03,0.99,-0,-0,-0,-0.97,2.08,9.74,0,0,0,-0.9,2.05,9.54,6.92343854904175
,0,0.1,0.05,0.03,0.99,0,0,0,-0.97,2.11,9.72,0,0,0,-0.9,2.05,9.54,6.94215750694275
,0,0.1,0.05,0.03,0.99,-0,0,-0,-0.97,2.07,9.72,0,0,0,-0.9,2.05,9.54,6.95998215675354
,0,0.1,0.05,0.03,0.99,0,0,0,-0.96,2.1,9.73,0,0,0,-0.9,2.05,9.54,6.97759318351746
,0,0.1,0.05,0.03,0.99,-0,0,-0,-0.97,2.08,9.7,0,0,0,-0.9,2.05,9.54,6.99341750144958
,0,0.1,0.05,0.03,0.99,0,0,0,-0.98,2.1,9.71,0,0,0,-0.9,2.05,9.54,7.01160526275635
,0,0.1,0.05,0.03,0.99,0,0,0,-0.99,2.1,9.72,0,0,0,-0.9,2.05,9.54,7.03120446205139
,0,0.1,0.05,0.03,0.99,-0,0,0,-0.98,2.07,9.74,0,0,0,-0.9,2.05,9.54,7.05161333084106
,0,0.1,0.05,0.03,0.99,-0,0,0,-0.96,2.09,9.7,0,0,0,-0.9,2.05,9.54,7.07147574424744
,0,0.1,0.05,0.03,0.99,0,-0,-0,-0.97,2.09,9.75,0,0,0,-0.9,2.05,9.54,7.08963251113892
,0,0.1,0.05,0.03,0.99,0,-0,0,-0.99,2.09,9.73,0,0,0,-0.9,2.05,9.54,7.10404920578003
,0,0.1,0.05,0.03,0.99,0,-0,0,-0.98,2.08,9.73,0,0,0,-0.9,2.05,9.54,7.12260365486145
,0,0.1,0.05,0.03,0.99,0,-0,0,-0.99,2.1,9.7,0,0,0,-0.9,2.05,9.54,7.14135551452637
,0,0.1,0.05,0.03,0.99,0,0,-0,-0.98,2.09,9.7,0,0,0,-0.9,2.05,9.54,7.15797257423401
,0,0.1,0.05,0.03,0.99,0,0,-0,-0.98,2.1,9.71,0,0,0,-0.9,2.05,9.54,7.17356896400452
,0,0.1,0.05,0.03,0.99,0,0,-0,-0.97,2.1,9.69,0,0,0,-0.9,2.05,9.54,7.19255232810974
,0,0.1,0.05,0.03,0.99,0,0,0,-0.96,2.07,9.68,0,0,0,-0.9,2.05,9.54,7.20987057685852
,0,0.1,0.05,0.03,0.99,0,0,-0,-0.98,2.07,9.73,0,0,0,-0.9,2.05,9.54,7.22653079032898
,0,0.1,0.05,0.03,0.99,0,0,0,-0.98,2.09,9.7,0,0,0,-0.9,2.05,9.54,7.24335145950317
,0,0.1,0.05,0.03,0.99,0,0,0,-0.97,2.06,9.74,0,0,0,-0.9,2.05,9.54,7.26171541213989
,0,0.1,0.05,0.03,0.99,0,0,0,-0.97,2.07,9.71,0,0,0,-0.9,2.05,9.54,7.281165599823
,0,0.1,0.05,0.03,0.99,-0,-0,0,-0.98,2.07,9.73,0,0,0,-0.9,2.05,9.54,7.29999804496765
,0,0.1,0.05,0.03,0.99,0,0,0,-0.96,2.09,9.71,0,0,0,-0.9,2.05,9.54,7.31586909294128
,0,0.1,0.05,0.03,0.99,0,0,0,-0.99,2.08,9.7,0,0,0,-0.9,2.05,9.54,7.33355450630188
,0,0.1,0.05,0.03,0.99,0,0,0,-0.96,2.1,9.71,0,0,0,-0.9,2.05,9.54,7.35300064086914
,0,0.1,0.05,0.03,0.99,0,0,0,-0.98,2.1,9.74,0,0,0,-0.9,2.05,9.54,7.37187576293945
,0,0.1,0.05,0.03,0.99,0,0,0,-0.99,2.08,9.72,0,0,0,-0.9,2.05,9.54,7.39008140563965
,0,0.1,0.05,0.03,0.99,-0,0,-0,-0.98,2.08,9.72,0,0,0,-0.9,2.05,9.54,7.40619373321533
,0,0.1,0.05,0.03,0.99,0,0,0,-0.98,2.07,9.74,0,0,0,-0.9,2.05,9.54,7.42323517799377
,0,0.1,0.05,0.03,0.99,0,0,0,-0.96,2.08,9.7,0,0,0,-0.9,2.05,9.54,7.44258999824524
,0,0.1,0.05,0.03,0.99,0,-0,0,-0.97,2.08,9.73,0,0,0,-0.9,2.05,9.54,7.45998907089233
,0,0.1,0.05,0.03,0.99,0,-0,0,-0.98,2.09,9.69,0,0,0,-0.9,2.05,9.54,7.47574138641357
,0,0.1,0.05,0.03,0.99,-0,-0,0,-0.97,2.09,9.71,0,0,0,-0.9,2.05,9.54,7.49311399459839
,0,0.1,0.05,0.03,0.99,0,0,-0,-0.98,2.08,9.7,0,0,0,-0.9,2.05,9.54,7.51094245910645
,0,0.1,0.05,0.03,0.99,-0,0,0,-0.98,2.07,9.75,0,0,0,-0.9,2.05,9.54,7.52944731712341
,0,0.1,0.05,0.03,0.99,0,-0,0,-0.97,2.09,9.7,0,0,0,-0.9,2.05,9.54,7.54520463943481
,0,0.1,0.05,0.03,0.99,0,0,-0,-0.97,2.11,9.72,0,0,0,-0.9,2.05,9.54,7.56253433227539
,0,0.1,0.05,0.03,0.99,-0,-0,0,-0.95,2.08,9.7,0,0,0,-0.9,2.05,9.54,7.58203291893005
,0,0.1,0.05,0.03,0.99,-0,-0,0,-0.98,2.07,9.74,0,0,0,-0.9,2.05,9.54,7.60038185119629
,0,0.1,0.05,0.03,0.99,0,0,0,-0.98,2.07,9.72,0,0,0,-0.9,2.05,9.54,7.61657476425171
,0,0.1,0.05,0.03,0.99,0,0,0,-0.99,2.07,9.71,0,0,0,-0.9,2.05,9.54,7.63416862487793
,0,0.1,0.05,0.03,0.99,0,-0,0,-0.97,2.08,9.71,0,0,0,-0.9,2.05,9.54,7.65353083610535
,0,0.1,0.05,0.03,0.99,0,-0,0,-0.97,2.09,9.74,0,0,0,-0.9,2.05,9.54,7.67207884788513
,0,0.1,0.05,0.03,0.99,0,0,0,-0.97,2.09,9.7,0,0,0,-0.9,2.05,9.54,7.68978095054626
,0,0.1,0.05,0.03,0.99,0,0,0,-0.98,2.07,9.73,0,0,0,-0.9,2.05,9.54,7.70652341842651
,0,0.1,0.05,0.03,0.99,0,0,0,-0.97,2.09,9.73,0,0,0,-0.9,2.05,9.54,7.72411108016968
,0,0.1,0.05,0.03,0.99,0,0,0,-0.96,2.09,9.73,0,0,0,-0.9,2.05,9.54,7.74316024780273
,0,0.1,0.05,0.03,0.99,0,-0,-0,-0.96,2.07,9.72,0,0,0,-0.9,2.05,9.54,7.76007604598999
,0,0.1,0.05,0.03,0.99,-0,-0,0,-0.97,2.07,9.73,0,0,0,-0.9,2.05,9.54,7.77666783332825
,0,0.1,0.05,0.03,0.99,0,0,0,-0.96,2.09,9.72,0,0,0,-0.9,2.05,9.54,7.79446053504944
,0,0.1,0.05,0.03,0.99,0,-0,0,-0.98,2.09,9.7,0,0,0,-0.9,2.05,9.54,7.81130075454712
,0,0.1,0.05,0.03,0.99,0,0,-0,-0.98,2.1,9.75,0,0,0,-0.9,2.05,9.54,7.8283805847168
,0,0.1,0.05,0.03,0.99,0,-0,0,-0.99,2.09,9.7,0,0,0,-0.9,2.05,9.54,7.84457492828369
,0,0.1,0.05,0.03,0.99,0,-0,0,-0.96,2.08,9.71,0,0,0,-0.9,2.05,9.54,7.86195993423462
,0,0.1,0.05,0.03,0.99,0,-0,-0,-0.98,2.09,9.73,0,0,0,-0.9,2.05,9.54,7.88023138046265
,0,0.1,0.05,0.03,0.99,0,-0,-0,-0.99,2.1,9.71,0,0,0,-0.9,2.05,9.54,7.89669156074524
,0,0.1,0.05,0.03,0.99,0,-0,0,-0.97,2.09,9.71,0,0,0,-0.9,2.05,9.54,7.91322565078735
,0,0.1,0.05,0.03,0.99,0,0,0,-0.98,2.1,9.74,0,0,0,-0.9,2.05,9.54,7.93266606330872
,0,0.1,0.05,0.03,0.99,0,-0,-0,-0.98,2.1,9.73,0,0,0,-0.9,2.05,9.54,7.95145606994629
,0,0.1,0.05,0.03,0.99,0,0,0,-0.97,2.1,9.73,0,0,0,-0.9,2.05,9.54,7.96848607063293
,0,0.1,0.05,0.03,0.99,0,0,0,-0.95,2.09,9.7,0,0,0,-0.9,2.05,9.54,7.98438405990601
,0,0.1,0.05,0.03,0.99,0,-0,0,-0.95,2.08,9.73,0,0,0,-0.9,2.05,9.54,8.00310301780701
,0,0.1,0.05,0.03,0.99,0,0,0,-0.96,2.08,9.7,0,0,0,-0.9,2.05,9.54,8.02181529998779
,0,0.1,0.05,0.03,0.99,0,0,0,-0.98,2.08,9.71,0,0,0,-0.9,2.05,9.54,8.03625321388245
,0,0.1,0.05,0.03,0.99,0,0,-0,-0.96,2.09,9.7,0,0,0,-0.9,2.05,9.54,8.05465817451477
,0,0.1,0.05,0.03,0.99,-0,0,-0,-0.96,2.08,9.73,0,0,0,-0.9,2.05,9.54,8.07319498062134
,0,0.1,0.05,0.03,0.99,-0,-0,0,-0.98,2.08,9.7,0,0,0,-0.9,2.05,9.54,8.09049916267395
,0,0.1,0.05,0.03,0.99,0,0,0,-0.97,2.09,9.7,0,0,0,-0.9,2.05,9.54,8.10794305801392
,0,0.1,0.05,0.03,0.99,-0,0,-0,-0.98,2.07,9.73,0,0,0,-0.9,2.05,9.54,8.12481951713562
,0,0.1,0.05,0.03,0.99,0,-0,0,-0.98,2.09,9.69,0,0,0,-0.9,2.05,9.54,8.14339280128479
,0,0.1,0.05,0.03,0.99,-0,-0,0,-0.96,2.06,9.72,0,0,0,-0.9,2.05,9.54,8.16083860397339
,0,0.1,0.05,0.03,0.99,-0,0,-0,-0.99,2.08,9.74,0,0,0,-0.9,2.05,9.54,8.1786322593689
,0,0.1,0.05,0.03,0.99,-0,0,-0,-0.98,2.09,9.7,0,0,0,-0.9,2.05,9.54,8.19572305679321
