Header,TimeStamp,QuatX,QuatY,QuatZ,QuatW,GyroX,GyroY,GyroZ,AccelX,AccelY,AccelZ,EulerX,EulerY,EulerZ,GravityX,GravityY,GravityZ,TimeStampGlob
,0,0.37,0.82,-0.27,0.35,0.77,2.12,-0.58,-10.87,-0.2,-5.72,0,0,0,-7.59,-1.82,-5.92,0.247920274734497
,0,0.37,0.82,-0.27,0.34,0.63,1.89,-0.47,-10.17,-0.72,-5.16,0,0,0,-7.48,-1.89,-6.04,0.263902187347412
,0,0.37,0.83,-0.27,0.33,0.57,1.49,-0.27,-9.17,-0.91,-0.89,0,0,0,-7.27,-2.01,-6.25,0.279407262802124
,0,0.37,0.83,-0.27,0.32,0.5,1.17,-0.15,-7.92,-0.29,-0.06,0,0,0,-7.15,-2.09,-6.37,0.296245098114014
,0,0.38,0.83,-0.27,0.31,0.66,0.45,0.15,-6.97,0.63,-0.98,0,0,0,-7.12,-2.12,-6.39,0.314038276672363
,0,0.38,0.82,-0.28,0.31,0.5,-0.25,0.34,-6.51,1,-1.26,0,0,0,-7.15,-2.14,-6.35,0.329267263412476
,0,0.38,0.82,-0.28,0.32,0.4,-0.54,0.42,-6.15,1.07,-1.82,0,0,0,-7.25,-2.12,-6.25,0.346194267272949
,0,0.39,0.82,-0.28,0.32,0.07,-1.02,0.57,-6.1,0.91,-1.54,0,0,0,-7.32,-2.08,-6.17,0.363688468933105
,0,0.39,0.81,-0.29,0.34,-0.26,-1.51,0.71,-5.8,0.29,-1.64,0,0,0,-7.51,-1.97,-5.98,0.379314661026001
,0,0.39,0.8,-0.29,0.36,-0.38,-1.75,0.78,-6.12,-0.11,-2.07,0,0,0,-7.75,-1.8,-5.72,0.396407842636108
,0,0.39,0.8,-0.29,0.37,-0.5,-2.26,0.91,-6.96,-0.64,-1.96,0,0,0,-7.89,-1.7,-5.56,0.413806200027466
,0,0.38,0.78,-0.29,0.39,-0.44,-2.68,1.04,-7.78,-0.87,-2.36,0,0,0,-8.19,-1.5,-5.17,0.42957878112793
,0,0.38,0.77,-0.29,0.42,-0.39,-2.88,1.1,-9.01,-1.38,-2.74,0,0,0,-8.5,-1.28,-4.7,0.446499109268188
,0,0.38,0.75,-0.3,0.45,-0.22,-3.19,1.21,-8.98,-1.68,-2.99,0,0,0,-8.66,-1.17,-4.44,0.46434497833252
,0,0.38,0.74,-0.3,0.46,-0.14,-3.47,1.24,-10.25,-0.85,-3.23,0,0,0,-8.96,-0.95,-3.86,0.479932308197021
,0,0.38,0.72,-0.31,0.49,-0.08,-3.59,1.27,-10.99,-0.22,-3.82,0,0,0,-9.23,-0.71,-3.22,0.49664306640625
,0,0.38,0.7,-0.31,0.52,-0.25,-3.76,1.35,-11.42,-0.23,-3.92,0,0,0,-9.35,-0.58,-2.89,0.514301061630249
,0,0.37,0.69,-0.32,0.54,-0.48,-3.8,1.35,-12.25,0.15,-3.96,0,0,0,-9.55,-0.31,-2.19,0.531440258026123
,0,0.37,0.66,-0.32,0.57,-0.59,-3.84,1.36,-12.35,0.27,-4.64,0,0,0,-9.69,-0.04,-1.48,0.547390699386597
,0,0.36,0.64,-0.32,0.6,-0.94,-3.92,1.34,-12.54,0.13,-5.05,0,0,0,-9.74,0.09,-1.11,0.564780712127686
,0,0.35,0.63,-0.32,0.62,-1.26,-3.85,1.28,-12.78,-0.19,-5.18,0,0,0,-9.79,0.35,-0.37,0.581459522247314
,0,0.34,0.61,-0.31,0.65,-1.33,-3.73,1.26,-12.31,-0.49,-5.65,0,0,0,-9.78,0.59,0.33,0.597112655639648
,0,0.33,0.59,-0.31,0.67,-1.39,-3.36,1.24,-11.81,-0.74,-5.95,0,0,0,-9.75,0.7,0.65,0.614999771118164
,0,0.32,0.58,-0.3,0.69,-1.22,-2.76,1.11,-9.31,-1.38,-8.01,0,0,0,-9.68,0.9,1.22,0.632082223892212
,0,0.32,0.56,-0.3,0.7,-1.08,-2.38,0.99,-7.65,-1.1,-9.09,0,0,0,-9.6,1.04,1.65,0.647372245788574
,0,0.31,0.55,-0.29,0.71,-0.86,-1.49,0.69,-6.58,-0.98,-8.92,0,0,0,-9.57,1.09,1.79,0.665453433990479
,0,0.31,0.55,-0.29,0.72,-0.56,-0.46,0.32,-5.77,-1.08,-9,0,0,0,-9.54,1.14,1.94,0.682005643844604
,0,0.31,0.56,-0.29,0.72,-0.42,0.07,0.13,-5.74,-0.32,-9.35,0,0,0,-9.55,1.13,1.89,0.697839498519897
,0,0.31,0.57,-0.29,0.71,-0.31,1.11,-0.25,-5.6,-0.29,-9.12,0,0,0,-9.57,1.11,1.79,0.715768575668335
,0,0.31,0.57,-0.29,0.7,-0.34,1.7,-0.67,-17.18,4,23.81,0,0,0,-9.64,0.98,1.49,0.732635974884033
,0,0.31,0.58,-0.28,0.7,0.13,0.76,0.23,-10.3,3.21,-0.67,0,0,0,-9.66,1.03,1.3,0.747495889663696
,0,0.31,0.58,-0.28,0.69,-0.41,0.6,0.03,-10.22,-1.67,2.37,0,0,0,-9.67,1.02,1.19,0.765384197235107
,0,0.31,0.59,-0.28,0.69,0.03,0.89,-0.09,-12.01,-4.13,1.1,0,0,0,-9.69,1.01,1.1,0.782469272613525
,0,0.32,0.6,-0.28,0.68,0.15,1.23,-0.35,-12.13,0.5,-0.17,0,0,0,-9.71,0.96,0.88,0.797796249389648
,0,0.32,0.6,-0.28,0.68,0.05,1.19,-0.3,-10.75,1.3,-0.47,0,0,0,-9.74,0.91,0.66,0.815571784973145
,0,0.32,0.61,-0.28,0.67,-0.09,1.02,-0.26,-9.54,2.52,-2.12,0,0,0,-9.74,0.88,0.57,0.832685708999634
,0,0.31,0.62,-0.27,0.67,-0.87,0.98,-0.26,-10.3,2.66,-2.7,0,0,0,-9.76,0.83,0.39,0.848315238952637
,0,0.31,0.63,-0.26,0.67,-1.25,0.93,-0.21,-10.5,1.97,-3.16,0,0,0,-9.76,0.8,0.32,0.865603685379028
,0,0.3,0.63,-0.26,0.67,-1.26,0.84,-0.14,-10.08,0.06,-0.94,0,0,0,-9.77,0.77,0.17,0.883185148239136
,0,0.3,0.64,-0.25,0.66,-0.32,0.7,-0.04,-9.87,-1.11,-0.85,0,0,0,-9.77,0.75,0.04,0.898442268371582
,0,0.31,0.64,-0.25,0.66,0.13,0.65,0.02,-10.19,-1.24,-0.45,0,0,0,-9.77,0.76,-0.07,0.915438652038574
,0,0.31,0.64,-0.25,0.65,0.79,0.55,0.09,-10.02,-0.26,-0.3,0,0,0,-9.77,0.77,-0.13,0.932301998138428
,0,0.32,0.64,-0.26,0.65,0.84,0.54,0.11,-9.44,1.2,-0.16,0,0,0,-9.77,0.79,-0.24,0.947755813598633
,0,0.32,0.64,-0.26,0.64,0.68,0.52,0.1,-9.71,1.56,0.05,0,0,0,-9.76,0.8,-0.35,0.965712070465088
,0,0.32,0.65,-0.26,0.64,0.27,0.57,0.1,-10.24,3.04,-1.04,0,0,0,-9.76,0.81,-0.4,0.982122421264648
,0,0.32,0.65,-0.25,0.64,-0.37,0.56,0.1,-9.75,1.8,-1.65,0,0,0,-9.75,0.83,-0.51,0.998015403747559
,0,0.32,0.65,-0.25,0.64,-0.46,0.57,0.09,-10.15,1.16,-1.05,0,0,0,-9.75,0.84,-0.56,1.0159969329834
,0,0.32,0.65,-0.25,0.64,-0.26,0.47,0.06,-10.08,0.33,-1.82,0,0,0,-9.74,0.86,-0.64,1.0327844619751
,0,0.32,0.66,-0.24,0.63,-0.03,0.45,-0,-10.27,0.89,-1.53,0,0,0,-9.74,0.86,-0.72,1.04842972755432
,0,0.32,0.66,-0.24,0.63,0.09,0.48,-0.03,-10.09,1.68,-1.21,0,0,0,-9.73,0.86,-0.77,1.06594800949097
,0,0.32,0.66,-0.24,0.63,-0.06,0.5,-0.05,-9.38,1.8,-2.07,0,0,0,-9.73,0.85,-0.86,1.08223390579224
,0,0.32,0.67,-0.24,0.63,-0.17,0.55,-0.08,-9.83,0.73,-1.63,0,0,0,-9.72,0.84,-0.96,1.09824681282043
,0,0.32,0.67,-0.24,0.62,-0.08,0.52,-0.07,-9.88,0.27,-1.22,0,0,0,-9.71,0.83,-1.01,1.11591982841492
,0,0.33,0.67,-0.24,0.62,0.17,0.42,-0.03,-9.62,0.46,-1.07,0,0,0,-9.7,0.82,-1.1,1.1334981918335
,0,0.33,0.67,-0.24,0.62,0.32,0.33,0.01,-9.64,1.36,-1.06,0,0,0,-9.7,0.81,-1.17,1.14974904060364
,0,0.33,0.67,-0.24,0.62,0.31,0.32,0.03,-9.57,1.74,-0.69,0,0,0,-9.69,0.81,-1.23,1.16694712638855
,0,0.33,0.67,-0.24,0.61,-0.01,0.3,0.02,-9.5,1.8,-0.93,0,0,0,-9.69,0.81,-1.26,1.18419671058655
,0,0.33,0.68,-0.24,0.61,-0.27,0.37,-0.02,-9.69,1.61,-0.81,0,0,0,-9.68,0.82,-1.32,1.20120477676392
,0,0.33,0.68,-0.23,0.61,-0.33,0.38,-0.03,-9.53,1,-1.37,0,0,0,-9.67,0.82,-1.39,1.21753692626953
,0,0.33,0.68,-0.23,0.61,-0.35,0.41,-0.08,-9.43,0.72,-1.68,0,0,0,-9.66,0.82,-1.42,1.23479247093201
,0,0.33,0.69,-0.23,0.61,-0.13,0.48,-0.09,-9.45,0.91,-1.34,0,0,0,-9.65,0.8,-1.51,1.25348210334778
,0,0.33,0.69,-0.23,0.6,0.1,0.55,-0.1,-9.36,1.26,-1.3,0,0,0,-9.64,0.78,-1.6,1.26874732971191
,0,0.33,0.69,-0.23,0.6,0.17,0.58,-0.11,-9.38,1.37,-1.42,0,0,0,-9.63,0.77,-1.66,1.28565835952759
,0,0.33,0.69,-0.23,0.6,0.18,0.63,-0.15,-9.54,1,-1.25,0,0,0,-9.61,0.74,-1.78,1.30434346199036
,0,0.33,0.7,-0.23,0.59,0.28,0.71,-0.18,-9.71,1.34,-1.11,0,0,0,-9.59,0.71,-1.9,1.3189868927002
,0,0.33,0.7,-0.23,0.59,0.28,0.74,-0.2,-9.78,1.34,-1.08,0,0,0,-9.57,0.67,-2.02,1.33580327033997
,0,0.34,0.71,-0.23,0.58,0.19,0.77,-0.24,-9.8,1.65,-1.22,0,0,0,-9.55,0.65,-2.09,1.35492920875549
,0,0.34,0.71,-0.23,0.58,0.1,0.82,-0.27,-9.55,1.4,-2.23,0,0,0,-9.52,0.59,-2.24,1.37000823020935
,0,0.34,0.71,-0.23,0.57,0.06,0.85,-0.3,-9.84,1.26,-1.87,0,0,0,-9.49,0.54,-2.4,1.38625049591064
,0,0.34,0.72,-0.23,0.56,0.02,0.85,-0.32,-9.47,0.73,-2.81,0,0,0,-9.47,0.51,-2.48,1.40513753890991
,0,0.34,0.72,-0.23,0.56,0.07,0.88,-0.35,-9.24,0.49,-2.89,0,0,0,-9.43,0.44,-2.64,1.41983723640442
,0,0.34,0.73,-0.23,0.55,0.14,0.91,-0.39,-8.95,0.3,-3.07,0,0,0,-9.38,0.35,-2.81,1.43717765808105
,0,0.34,0.73,-0.23,0.54,0.4,0.99,-0.46,-10.17,1.54,-2.02,0,0,0,-9.33,0.25,-2.99,1.4565441608429
,0,0.34,0.74,-0.23,0.54,0.45,1.01,-0.46,-10.94,1.91,-2.25,0,0,0,-9.3,0.19,-3.08,1.47058725357056
,0,0.34,0.74,-0.24,0.53,0.52,1.08,-0.49,-11.91,1.52,-1.38,0,0,0,-9.23,0.07,-3.28,1.48715424537659
,0,0.34,0.75,-0.24,0.51,0.66,1.16,-0.52,-11.87,1,-0.99,0,0,0,-9.16,-0.06,-3.49,1.50625777244568
,0,0.34,0.75,-0.24,0.51,0.76,1.36,-0.62,-11.85,0.4,-0.59,0,0,0,-9.11,-0.14,-3.61,1.52062773704529
,0,0.35,0.76,-0.25,0.49,0.82,1.48,-0.66,-11.77,-0.15,-0.45,0,0,0,-8.99,-0.33,-3.88,1.53695774078369
,0,0.35,0.77,-0.25,0.47,1,1.76,-0.79,-12.31,-0.46,-0.24,0,0,0,-8.84,-0.55,-4.18,1.55651712417603
,0,0.35,0.77,-0.25,0.46,1.24,1.96,-0.83,-14.28,-0.95,-0.96,0,0,0,-8.76,-0.67,-4.34,1.57053256034851
,0,0.36,0.78,-0.26,0.44,1.3,2.07,-0.85,-15.35,-0.99,0.1,0,0,0,-8.56,-0.93,-4.68,1.58736443519592
,0,0.36,0.79,-0.27,0.42,1.45,2.15,-0.8,-14.24,0.01,-0.52,0,0,0,-8.34,-1.2,-5,1.60643863677979
,0,0.36,0.79,-0.27,0.4,1.58,2.29,-0.79,-13.03,1.31,-3.17,0,0,0,-8.22,-1.34,-5.17,1.62148952484131
,0,0.37,0.8,-0.28,0.38,1.4,2.38,-0.83,-12.54,2.52,-6.21,0,0,0,-7.94,-1.6,-5.51,1.63741970062256
,0,0.37,0.81,-0.28,0.35,0.91,2.4,-0.85,-12.36,1.85,-6.01,0,0,0,-7.66,-1.82,-5.84,1.65707063674927
,0,0.37,0.82,-0.28,0.34,0.51,2.25,-0.69,-10.36,0.42,-6.5,0,0,0,-7.51,-1.9,-6,1.67153334617615
,0,0.38,0.82,-0.27,0.33,0.28,2.14,-0.55,-9.64,-1.11,-3.72,0,0,0,-7.25,-2,-6.28,1.68781042098999
,0,0.38,0.83,-0.27,0.31,0.19,1.64,-0.26,-9.12,-0.8,-1.44,0,0,0,-7.07,-2.04,-6.47,1.70675539970398
,0,0.38,0.83,-0.27,0.31,0.43,0.73,0.17,-7.56,-0.48,1.18,0,0,0,-7.03,-2.06,-6.51,1.72119760513306
,0,0.39,0.83,-0.27,0.31,0.75,0.3,0.35,-5.87,-0.49,-1.25,0,0,0,-7.03,-2.11,-6.49,1.73750448226929
,0,0.39,0.82,-0.28,0.31,0.93,-0.44,0.52,-5.66,-0.3,-1.76,0,0,0,-7.13,-2.14,-6.37,1.75641012191772
,0,0.4,0.81,-0.29,0.31,0.57,-1.09,0.59,-5.2,0.37,-0.96,0,0,0,-7.21,-2.13,-6.29,1.77100229263306
,0,0.4,0.81,-0.29,0.32,0.44,-1.35,0.66,-4.94,0.71,-1.42,0,0,0,-7.41,-2.07,-6.07,1.78722214698792
,0,0.4,0.8,-0.29,0.34,-0.1,-1.85,0.81,-5.13,1.09,-1.3,0,0,0,-7.54,-2.01,-5.93,1.80625796318054
,0,0.4,0.79,-0.29,0.36,-0.65,-2.33,1.05,-5.64,1.46,-2.05,0,0,0,-7.82,-1.8,-5.62,1.8207049369812
,0,0.4,0.78,-0.29,0.38,-0.83,-2.57,1.18,-5.8,0.79,-1.86,0,0,0,-8.14,-1.52,-5.24,1.83692836761475
,0,0.4,0.77,-0.3,0.41,-0.84,-3,1.4,-6.61,-1.02,-2.08,0,0,0,-8.31,-1.37,-5.01,1.85656666755676
,0,0.4,0.76,-0.3,0.43,-0.49,-3.45,1.46,-7.29,-1.4,-2.93,0,0,0,-8.65,-1.07,-4.47,1.87183046340942
,0,0.4,0.73,-0.3,0.46,-0.26,-3.6,1.53,-9.24,-1.39,-3.18,0,0,0,-8.98,-0.79,-3.85,1.88728141784668
,0,0.4,0.71,-0.31,0.49,0.03,-3.87,1.68,-10.79,-2.65,-3.53,0,0,0,-9.13,-0.64,-3.51,1.90607738494873
,0,0.4,0.7,-0.32,0.51,0.17,-4.18,1.63,-11.2,-2.05,-5.28,0,0,0,-9.39,-0.36,-2.78,1.9211893081665
,0,0.39,0.67,-0.32,0.54,0.21,-4.24,1.63,-11.07,-1.14,-6.25,0,0,0,-9.59,-0.06,-2,1.93734502792358
,0,0.39,0.64,-0.33,0.57,-0.29,-4.16,1.63,-12.03,0.46,-6.57,0,0,0,-9.67,0.08,-1.61,1.9564528465271
,0,0.38,0.63,-0.33,0.59,-1.04,-3.95,1.51,-11.83,1.12,-7.43,0,0,0,-9.76,0.4,-0.85,1.9716157913208
,0,0.37,0.61,-0.32,0.62,-1.41,-3.76,1.42,-11.71,0.97,-7.54,0,0,0,-9.78,0.67,-0.14,1.98768377304077
,0,0.36,0.59,-0.32,0.65,-1.83,-3.39,1.18,-11.88,-0.27,-7.25,0,0,0,-9.77,0.78,0.18,2.00664138793945
,0,0.35,0.58,-0.31,0.66,-1.8,-2.97,0.97,-11.48,-0.42,-7.75,0,0,0,-9.72,0.95,0.8,2.02146744728088
,0,0.34,0.57,-0.31,0.69,-1.68,-2.68,0.89,-10.77,-0.46,-8.16,0,0,0,-9.65,1.08,1.3,2.03752994537354
,0,0.33,0.56,-0.3,0.7,-1.43,-1.85,0.76,-8.89,-1.02,-8.87,0,0,0,-9.62,1.13,1.48,2.05638575553894
,0,0.32,0.55,-0.3,0.71,-0.81,-0.88,0.6,-6.37,-2.27,-9.35,0,0,0,-9.57,1.22,1.72,2.07189440727234
,0,0.32,0.55,-0.29,0.71,-0.42,-0.34,0.48,-5.88,-2.11,-9.6,0,0,0,-9.56,1.28,1.74,2.08789348602295
,0,0.32,0.56,-0.29,0.7,-0.08,0.71,0.03,-6.92,-2.13,-7.64,0,0,0,-9.57,1.28,1.67,2.10644578933716
,0,0.32,0.57,-0.29,0.7,-0.26,1.47,-0.52,-9.62,0.83,-1.68,0,0,0,-9.62,1.21,1.44,2.1217577457428
,0,0.33,0.57,-0.29,0.69,0.25,1.37,-0.37,-12.04,1.44,1.05,0,0,0,-9.65,1.18,1.21,2.13770866394043
,0,0.33,0.58,-0.29,0.69,0.08,0.84,-0.07,-11.54,-1.02,1.33,0,0,0,-9.66,1.18,1.13,2.15607476234436
,0,0.33,0.58,-0.29,0.68,0.19,0.94,-0.23,-11.85,-1.11,0.17,0,0,0,-9.69,1.14,0.96,2.17107129096985
,0,0.33,0.59,-0.29,0.68,0.04,1.03,-0.33,-11.43,-0.88,-0.68,0,0,0,-9.71,1.07,0.76,2.18752646446228
,0,0.33,0.6,-0.28,0.67,-0.22,1.23,-0.34,-10.65,2.18,-1.21,0,0,0,-9.72,1.04,0.64,2.20549964904785
,0,0.33,0.61,-0.28,0.67,-0.64,1.11,-0.2,-9.43,1.51,-1.87,0,0,0,-9.74,0.99,0.44,2.22178435325623
,0,0.33,0.62,-0.27,0.66,-0.8,1.05,-0.19,-9.86,1.07,-2.06,0,0,0,-9.75,0.95,0.26,2.23744225502014
,0,0.33,0.62,-0.27,0.66,-0.96,0.89,-0.15,-10.12,0.57,-2.77,0,0,0,-9.75,0.94,0.18,2.25547790527344
,0,0.32,0.63,-0.26,0.66,-0.76,0.71,-0.08,-10.33,-0.33,-1.58,0,0,0,-9.76,0.91,0.05,2.27163529396057
,0,0.32,0.63,-0.26,0.66,-0.55,0.66,-0,-9.97,-0.63,-1.56,0,0,0,-9.76,0.92,-0.05,2.28775811195374
,0,0.32,0.63,-0.26,0.65,0.17,0.65,0.09,-9.69,-0.23,-0.61,0,0,0,-9.76,0.93,-0.12,2.30584907531738
,0,0.33,0.64,-0.26,0.65,0.62,0.62,0.09,-9.55,1.09,-0.05,0,0,0,-9.75,0.94,-0.24,2.32106876373291
,0,0.33,0.64,-0.26,0.64,0.65,0.59,0.09,-9.75,1.49,0.03,0,0,0,-9.75,0.95,-0.37,2.33722805976868
,0,0.34,0.64,-0.26,0.64,0.52,0.59,0.04,-9.89,2.5,-0.6,0,0,0,-9.74,0.96,-0.43,2.35583806037903
,0,0.34,0.64,-0.26,0.64,0.24,0.66,0,-10,3.89,-1.19,0,0,0,-9.74,0.95,-0.55,2.37135577201843
,0,0.34,0.65,-0.26,0.63,-0.01,0.65,-0.01,-9.83,3.14,-0.51,0,0,0,-9.73,0.95,-0.67,2.38745975494385
,0,0.34,0.65,-0.26,0.63,-0.11,0.65,-0.05,-9.5,1.93,-1.65,0,0,0,-9.73,0.94,-0.73,2.40614628791809
,0,0.34,0.65,-0.26,0.63,-0.06,0.68,-0.14,-10.02,1.63,-1.33,0,0,0,-9.72,0.92,-0.85,2.42221355438232
,0,0.34,0.66,-0.25,0.62,-0.07,0.69,-0.18,-9.96,1.64,-1.49,0,0,0,-9.71,0.89,-0.98,2.43808031082153
,0,0.34,0.66,-0.25,0.62,-0.33,0.69,-0.22,-9.66,1.86,-1.95,0,0,0,-9.71,0.87,-1.04,2.45607686042786
,0,0.34,0.67,-0.25,0.62,-0.49,0.68,-0.19,-9.75,1.29,-1.41,0,0,0,-9.69,0.84,-1.16,2.47195053100586
,0,0.34,0.67,-0.24,0.61,-0.46,0.67,-0.16,-9.95,0.87,-1.23,0,0,0,-9.68,0.83,-1.28,2.48817443847656
,0,0.34,0.68,-0.24,0.61,-0.19,0.58,-0.12,-9.91,0.21,-0.93,0,0,0,-9.68,0.82,-1.33,2.50656008720398
,0,0.34,0.68,-0.24,0.61,0.02,0.5,-0.1,-9.54,0.98,-1.66,0,0,0,-9.66,0.8,-1.43,2.52235198020935
,0,0.34,0.68,-0.24,0.6,0.04,0.46,-0.09,-9.2,1.07,-1.75,0,0,0,-9.65,0.78,-1.51,2.53784441947937
,0,0.34,0.68,-0.24,0.6,-0.02,0.45,-0.06,-9.48,1.35,-1.61,0,0,0,-9.65,0.78,-1.55,2.55630207061768
,0,0.34,0.69,-0.24,0.6,-0.33,0.4,-0.09,-9.34,1.34,-2.09,0,0,0,-9.63,0.77,-1.62,2.57225036621094
,0,0.33,0.69,-0.23,0.6,-0.35,0.46,-0.08,-9.39,1.83,-2.64,0,0,0,-9.62,0.77,-1.71,2.58819341659546
,0,0.33,0.69,-0.23,0.6,-0.61,0.46,-0.09,-9.5,1.08,-2.54,0,0,0,-9.61,0.77,-1.74,2.60660290718079
,0,0.33,0.7,-0.23,0.6,-0.47,0.48,-0.09,-9.77,0.62,-1.82,0,0,0,-9.6,0.77,-1.82,2.62228178977966
,0,0.33,0.7,-0.22,0.59,-0.27,0.46,-0.09,-9.78,0.7,-1.45,0,0,0,-9.58,0.76,-1.9,2.64152312278748
,0,0.33,0.7,-0.22,0.59,-0.21,0.45,-0.09,-9.56,0.85,-1.74,0,0,0,-9.57,0.75,-1.99,2.65937829017639
,0,0.33,0.7,-0.22,0.59,-0.14,0.5,-0.09,-9.51,0.48,-1.95,0,0,0,-9.56,0.75,-2.03,2.67341899871826
,0,0.33,0.71,-0.22,0.59,-0.05,0.55,-0.1,-9.62,0.82,-1.9,0,0,0,-9.54,0.73,-2.13,2.68860197067261
,0,0.33,0.71,-0.22,0.58,0.11,0.6,-0.1,-9.58,0.83,-1.93,0,0,0,-9.53,0.72,-2.19,2.706139087677
,0,0.33,0.71,-0.22,0.58,0.21,0.64,-0.12,-9.91,1.3,-1.69,0,0,0,-9.5,0.69,-2.3,2.72234725952148
,0,0.33,0.72,-0.22,0.57,0.21,0.64,-0.12,-9.66,1.09,-1.9,0,0,0,-9.47,0.66,-2.42,2.73819231987
,0,0.33,0.72,-0.22,0.57,0.27,0.74,-0.17,-9.77,0.91,-1.72,0,0,0,-9.46,0.64,-2.48,2.75598502159119
,0,0.33,0.72,-0.22,0.56,0.2,0.81,-0.21,-9.48,1.51,-2.52,0,0,0,-9.42,0.59,-2.63,2.77228212356567
,0,0.34,0.73,-0.22,0.56,0.2,0.81,-0.21,-9.5,1.18,-2.92,0,0,0,-9.38,0.54,-2.78,2.78802108764648
,0,0.34,0.73,-0.22,0.55,0.15,0.83,-0.27,-9.13,0.7,-3.19,0,0,0,-9.36,0.51,-2.85,2.80690956115723
,0,0.34,0.74,-0.22,0.55,0.34,0.93,-0.35,-9.17,0.44,-3.11,0,0,0,-9.31,0.44,-3.02,2.82245564460754
,0,0.34,0.74,-0.22,0.54,0.34,0.93,-0.35,-11.08,1.72,-2.31,0,0,0,-9.26,0.35,-3.19,2.83875203132629
,0,0.34,0.75,-0.22,0.53,0.43,0.93,-0.36,-10.82,1.28,-2.75,0,0,0,-9.23,0.3,-3.27,2.85668563842773
,0,0.34,0.75,-0.22,0.52,0.52,1.09,-0.44,-11.63,0.66,-1.84,0,0,0,-9.17,0.2,-3.46,2.87277293205261
,0,0.34,0.75,-0.23,0.51,0.64,1.13,-0.5,-11.4,0.54,-2.33,0,0,0,-9.09,0.06,-3.67,2.88843655586243
,0,0.35,0.76,-0.23,0.5,0.77,1.24,-0.57,-11.98,-0.26,-1.45,0,0,0,-9.04,-0.01,-3.78,2.90655827522278
,0,0.35,0.76,-0.23,0.49,0.98,1.49,-0.63,-12.33,-0.9,-0.22,0,0,0,-8.93,-0.18,-4.02,2.92331075668335
,0,0.35,0.77,-0.24,0.47,1.2,1.61,-0.65,-12.55,0.78,-0.56,0,0,0,-8.8,-0.4,-4.3,2.93861484527588
,0,0.36,0.78,-0.25,0.45,1.5,1.8,-0.67,-12.94,1.14,-0.79,0,0,0,-8.72,-0.52,-4.45,2.95673513412476
,0,0.36,0.78,-0.25,0.44,1.4,1.99,-0.72,-13.58,1.7,-1.31,0,0,0,-8.53,-0.77,-4.75,2.97290635108948
,0,0.37,0.79,-0.26,0.42,1.38,2.06,-0.67,-13.03,1.43,-2.2,0,0,0,-8.32,-1.01,-5.07,2.98869395256042
,0,0.37,0.8,-0.27,0.39,1.48,2.12,-0.53,-11.79,1.13,-4.49,0,0,0,-8.21,-1.12,-5.22,3.00726819038391
,0,0.38,0.8,-0.27,0.38,1.67,2.25,-0.52,-12.05,0.47,-4.87,0,0,0,-7.97,-1.37,-5.53,3.02368664741516
,0,0.39,0.81,-0.27,0.36,1.47,2.27,-0.56,-10.39,0.91,-6.84,0,0,0,-7.71,-1.61,-5.83,3.0390191078186
,0,0.39,0.81,-0.28,0.33,1.35,2.15,-0.48,-9.92,0.52,-7.47,0,0,0,-7.58,-1.73,-5.97,3.05738663673401
,0,0.4,0.81,-0.28,0.32,0.99,2.05,-0.37,-9.26,-1.17,-5.24,0,0,0,-7.32,-1.91,-6.23,3.07420253753662
,0,0.4,0.82,-0.28,0.31,0.89,1.98,-0.26,-8.71,0.09,-0.95,0,0,0,-7.08,-2.05,-6.46,3.08956623077393
,0,0.41,0.82,-0.28,0.29,0.56,1.4,-0.06,-8.5,0.16,0.5,0,0,0,-6.99,-2.09,-6.54,3.10742354393005
,0,0.41,0.82,-0.28,0.29,0.76,0.59,0.31,-7.12,-0.53,0.28,0,0,0,-6.9,-2.15,-6.62,3.12401056289673
,0,0.42,0.81,-0.28,0.29,0.89,0.23,0.44,-6.22,-0.18,-1.06,0,0,0,-6.91,-2.2,-6.59,3.13917303085327
,0,0.42,0.81,-0.29,0.29,0.87,-0.5,0.5,-5.98,-0.23,-1.13,0,0,0,-6.96,-2.22,-6.53,3.15769147872925
,0,0.42,0.8,-0.3,0.29,0.53,-1.05,0.54,-5.88,0.25,-1.22,0,0,0,-7.09,-2.22,-6.38,3.17397785186768
,0,0.43,0.8,-0.3,0.31,0.26,-1.29,0.57,-5.86,0.5,-1.73,0,0,0,-7.29,-2.16,-6.18,3.18916630744934
,0,0.42,0.79,-0.3,0.32,-0.26,-1.77,0.7,-5.86,0.89,-2.01,0,0,0,-7.41,-2.09,-6.06,3.20764470100403
,0,0.42,0.78,-0.3,0.34,-0.77,-2.23,0.87,-6.49,-0.03,-1.95,0,0,0,-7.69,-1.9,-5.78,3.22422194480896
,0,0.42,0.77,-0.3,0.36,-0.94,-2.45,0.96,-7.41,-0.26,-1.96,0,0,0,-8,-1.64,-5.42,3.2394711971283
,0,0.42,0.76,-0.3,0.39,-1.06,-2.87,1.16,-8.22,-1.12,-2.7,0,0,0,-8.16,-1.49,-5.21,3.25793313980103
,0,0.41,0.75,-0.31,0.41,-0.9,-3.26,1.25,-9.23,-1.76,-3.68,0,0,0,-8.5,-1.2,-4.72,3.27409100532532
,0,0.41,0.74,-0.31,0.44,-0.69,-3.41,1.27,-11.03,-3.03,-3.85,0,0,0,-8.83,-0.93,-4.15,3.28933596611023
,0,0.41,0.72,-0.32,0.47,-0.31,-3.62,1.28,-11.54,-2.72,-3.91,0,0,0,-8.98,-0.81,-3.84,3.30777812004089
,0,0.41,0.71,-0.32,0.48,-0.14,-3.81,1.21,-11.48,-0.8,-5.17,0,0,0,-9.25,-0.58,-3.18,3.32417464256287
,0,0.4,0.68,-0.33,0.51,-0.09,-3.85,1.22,-11.35,-0.03,-5.79,0,0,0,-9.47,-0.35,-2.49,3.33967089653015
,0,0.4,0.66,-0.33,0.54,-0.3,-3.79,1.27,-11.28,0.57,-5.98,0,0,0,-9.56,-0.23,-2.14,3.35763049125671
,0,0.39,0.65,-0.34,0.56,-0.82,-3.6,1.28,-11.15,0.78,-5.62,0,0,0,-9.69,0.02,-1.46,3.37456464767456
,0,0.38,0.63,-0.33,0.59,-1.09,-3.49,1.26,-11.2,0.07,-5.49,0,0,0,-9.76,0.29,-0.8,3.3895218372345
,0,0.37,0.61,-0.33,0.62,-1.52,-3.32,1.2,-11.1,-0.02,-5.73,0,0,0,-9.79,0.53,-0.17,3.40783262252808
,0,0.36,0.6,-0.33,0.63,-1.66,-3.11,1.1,-10.99,-0.33,-6.06,0,0,0,-9.78,0.63,0.12,3.42436671257019
,0,0.35,0.59,-0.32,0.66,-1.62,-2.95,1.05,-9.82,-0.7,-8.44,0,0,0,-9.74,0.81,0.68,3.43971991539001
,0,0.34,0.57,-0.32,0.68,-1.43,-2.48,0.93,-9.1,-1.23,-8.7,0,0,0,-9.69,0.95,1.14,3.45836567878723
,0,0.33,0.57,-0.31,0.69,-1.09,-1.73,0.71,-7.21,-1.86,-9.81,0,0,0,-9.66,1.01,1.31,3.47458267211914
,0,0.33,0.56,-0.31,0.69,-0.86,-1.28,0.58,-6.24,-1.66,-9.95,0,0,0,-9.62,1.08,1.52,3.49022030830383
,0,0.33,0.56,-0.31,0.7,-0.45,-0.33,0.26,-5.77,-1.1,-9.77,0,0,0,-9.61,1.1,1.55,3.50791525840759
,0,0.33,0.56,-0.3,0.7,-0.18,0.62,-0.07,-6.29,0.45,-10.02,0,0,0,-9.62,1.09,1.49,3.52449345588684
,0,0.33,0.57,-0.3,0.69,-0.23,1.09,-0.24,-16.59,-3.4,21.13,0,0,0,-9.67,1.02,1.25,3.53979659080505
,0,0.33,0.58,-0.3,0.68,-0.47,1.4,-0.44,-14.89,-3.63,4.99,0,0,0,-9.7,0.96,1.03,3.55796694755554
,0,0.33,0.59,-0.3,0.68,0.56,0.93,-0.02,-11.87,0.01,-0.83,0,0,0,-9.71,0.97,0.94,3.57473587989807
,0,0.34,0.59,-0.3,0.67,0.56,0.93,-0.13,-10.83,-0.62,-1.21,0,0,0,-9.73,0.94,0.75,3.58971381187439
,0,0.34,0.6,-0.3,0.66,0.29,1.06,-0.31,-10.51,1.64,-0.18,0,0,0,-9.75,0.88,0.54,3.60784554481506
,0,0.34,0.6,-0.3,0.66,-0.01,1.17,-0.28,-10.09,1.51,-2.21,0,0,0,-9.75,0.85,0.42,3.6249258518219
,0,0.34,0.61,-0.29,0.65,-0.29,1.13,-0.19,-9.77,0.63,-2.79,0,0,0,-9.76,0.82,0.22,3.63977742195129
,0,0.34,0.62,-0.29,0.65,-0.79,1.01,-0.13,-10.24,0.26,-1.86,0,0,0,-9.77,0.79,0.05,3.65807700157166
,0,0.33,0.62,-0.28,0.65,-0.74,0.83,-0.06,-10.71,-0.63,-0.68,0,0,0,-9.77,0.79,-0.01,3.67459154129028
,0,0.33,0.63,-0.28,0.65,-0.57,0.71,-0.03,-10.38,-0.06,-0.58,0,0,0,-9.77,0.79,-0.13,3.68956017494202
,0,0.34,0.63,-0.28,0.64,-0.03,0.54,0.12,-9.81,0.12,-0.71,0,0,0,-9.76,0.81,-0.23,3.70795750617981
,0,0.34,0.63,-0.28,0.64,0.43,0.52,0.12,-8.39,1.34,-0.79,0,0,0,-9.76,0.82,-0.28,3.72512698173523
,0,0.34,0.63,-0.28,0.63,0.46,0.58,0.09,-9.96,1.67,-0.2,0,0,0,-9.76,0.84,-0.41,3.740318775177
,0,0.35,0.64,-0.28,0.63,0.45,0.68,0.06,-10.25,2.17,-0.13,0,0,0,-9.75,0.84,-0.54,3.757972240448
,0,0.35,0.64,-0.28,0.63,0.23,0.69,0.04,-10.03,2.98,-1.43,0,0,0,-9.75,0.84,-0.61,3.77529644966125
,0,0.35,0.64,-0.27,0.62,0.04,0.72,-0,-9.62,1.83,-2.02,0,0,0,-9.74,0.84,-0.75,3.78990125656128
,0,0.35,0.65,-0.27,0.62,-0.14,0.76,-0.05,-9.71,1.75,-1.86,0,0,0,-9.72,0.84,-0.89,3.80840563774109
,0,0.35,0.65,-0.27,0.62,-0.09,0.72,-0.08,-10.21,1.47,-1.4,0,0,0,-9.72,0.83,-0.96,3.82554626464844
,0,0.35,0.66,-0.27,0.61,-0.15,0.66,-0.16,-10.1,1.85,-1.55,0,0,0,-9.71,0.81,-1.08,3.83974313735962
,0,0.35,0.66,-0.26,0.61,-0.32,0.64,-0.18,-9.99,1.54,-1.45,0,0,0,-9.7,0.78,-1.19,3.85805201530457
,0,0.35,0.66,-0.26,0.61,-0.51,0.56,-0.14,-9.89,0.81,-1.16,0,0,0,-9.69,0.78,-1.24,3.87499952316284
,0,0.35,0.67,-0.26,0.6,-0.33,0.5,-0.08,-9.74,0.52,-1.4,0,0,0,-9.68,0.77,-1.33,3.89021134376526
,0,0.35,0.67,-0.26,0.6,-0.15,0.48,-0.07,-9.69,0.72,-1.63,0,0,0,-9.67,0.76,-1.42,3.90818357467651
,0,0.35,0.67,-0.26,0.6,0.1,0.48,-0.07,-9.17,1.17,-1.87,0,0,0,-9.66,0.75,-1.46,3.92562580108643
,0,0.35,0.68,-0.25,0.6,0.13,0.48,-0.08,-9.03,1.55,-2.12,0,0,0,-9.65,0.73,-1.56,3.94089031219482
,0,0.35,0.68,-0.25,0.59,0.06,0.5,-0.08,-9.27,1.69,-2.14,0,0,0,-9.63,0.71,-1.65,3.95882964134216
,0,0.35,0.68,-0.25,0.59,-0.17,0.51,-0.11,-9.49,1.43,-1.82,0,0,0,-9.63,0.71,-1.7,3.9762806892395
,0,0.35,0.68,-0.25,0.59,-0.31,0.53,-0.13,-9.53,1.39,-2.02,0,0,0,-9.61,0.69,-1.79,3.99157571792603
,0,0.35,0.69,-0.25,0.59,-0.26,0.56,-0.11,-9.6,1.05,-2.03,0,0,0,-9.59,0.68,-1.89,4.00889849662781
,0,0.35,0.69,-0.25,0.58,-0.32,0.51,-0.12,-9.89,0.61,-1.52,0,0,0,-9.58,0.68,-1.93,4.0261218547821
,0,0.35,0.69,-0.24,0.58,-0.24,0.46,-0.11,-9.96,0.56,-1.49,0,0,0,-9.57,0.66,-2.01,4.04176044464111
,0,0.35,0.7,-0.24,0.58,-0.17,0.45,-0.1,-9.96,0.44,-1.74,0,0,0,-9.55,0.65,-2.1,4.05926942825317
,0,0.35,0.7,-0.24,0.58,-0.01,0.46,-0.09,-9.8,0.54,-1.73,0,0,0,-9.54,0.64,-2.14,4.07647299766541
,0,0.35,0.7,-0.24,0.57,0.14,0.48,-0.09,-9.61,0.89,-1.91,0,0,0,-9.52,0.62,-2.22,4.09133362770081
,0,0.35,0.7,-0.24,0.57,0.19,0.51,-0.1,-9.82,1.12,-1.83,0,0,0,-9.5,0.59,-2.32,4.1092700958252
,0,0.35,0.71,-0.24,0.57,0.21,0.58,-0.15,-9.41,0.43,-2.36,0,0,0,-9.49,0.57,-2.38,4.12632894515991
,0,0.35,0.71,-0.24,0.56,0.3,0.71,-0.2,-9.43,1.49,-2.55,0,0,0,-9.46,0.53,-2.51,4.14200043678284
,0,0.35,0.71,-0.24,0.55,0.21,0.75,-0.24,-9.55,1.46,-2.6,0,0,0,-9.42,0.47,-2.65,4.1588237285614
,0,0.35,0.72,-0.24,0.55,0.15,0.82,-0.28,-9.68,0.79,-2.84,0,0,0,-9.4,0.44,-2.72,4.17652344703674
,0,0.36,0.72,-0.24,0.54,0.15,0.84,-0.32,-9.57,0.24,-2.81,0,0,0,-9.36,0.38,-2.88,4.19230699539185
,0,0.36,0.73,-0.24,0.54,0.22,0.85,-0.34,-10.51,0.69,-1.68,0,0,0,-9.31,0.3,-3.03,4.20911073684692
,0,0.36,0.73,-0.24,0.53,0.34,0.83,-0.33,-10.06,0.28,-3.05,0,0,0,-9.29,0.26,-3.11,4.22676563262939
,0,0.36,0.73,-0.24,0.52,0.43,0.92,-0.41,-10.79,1.57,-2.15,0,0,0,-9.24,0.17,-3.27,4.24242663383484
,0,0.36,0.74,-0.25,0.51,0.51,0.96,-0.44,-10.76,1.98,-2.27,0,0,0,-9.18,0.05,-3.44,4.25916767120361
,0,0.36,0.74,-0.25,0.51,0.53,1,-0.45,-10.9,1.22,-1.86,0,0,0,-9.14,0,-3.53,4.27639842033386
,0,0.36,0.75,-0.25,0.5,0.72,1.12,-0.5,-11.45,1.12,-1.53,0,0,0,-9.07,-0.13,-3.72,4.29217338562012
,0,0.37,0.75,-0.25,0.48,0.78,1.18,-0.51,-11.93,-0.43,-0.12,0,0,0,-8.97,-0.28,-3.93,4.30929684638977
,0,0.37,0.76,-0.26,0.48,0.92,1.42,-0.6,-12.04,-0.82,-0.21,0,0,0,-8.91,-0.37,-4.05,4.3268358707428
,0,0.37,0.76,-0.26,0.46,1.23,1.62,-0.66,-12.68,-0.36,-0.61,0,0,0,-8.78,-0.57,-4.31,4.34287762641907
,0,0.38,0.77,-0.27,0.44,1.29,1.77,-0.72,-13.5,0.97,-0.7,0,0,0,-8.62,-0.81,-4.6,4.35940766334534
,0,0.38,0.78,-0.27,0.42,1.31,1.9,-0.74,-13.17,1.51,-2.25,0,0,0,-8.52,-0.93,-4.75,4.37701153755188
,0,0.38,0.78,-0.28,0.41,1.22,2.03,-0.69,-12.69,1.37,-2.21,0,0,0,-8.32,-1.16,-5.05,4.39339327812195
,0,0.39,0.79,-0.28,0.38,1.25,2.1,-0.65,-12.01,1.27,-5.8,0,0,0,-8.09,-1.4,-5.35,4.40986895561218
,0,0.4,0.79,-0.28,0.36,1.4,2.25,-0.66,-12.2,0.7,-5.96,0,0,0,-7.96,-1.52,-5.51,4.42718625068665
,0,0.4,0.8,-0.29,0.35,0.96,2.2,-0.72,-10.73,1.54,-6.85,0,0,0,-7.69,-1.75,-5.81,4.44343495368958
,0,0.4,0.81,-0.28,0.33,0.76,2.15,-0.67,-9.93,0.45,-5.87,0,0,0,-7.43,-1.91,-6.1,4.45990538597107
,0,0.4,0.81,-0.28,0.31,0.42,1.99,-0.52,-9.26,-0.45,-5.13,0,0,0,-7.3,-1.98,-6.23,4.47765350341797
,0,0.41,0.82,-0.28,0.3,0.32,1.55,-0.27,-8.4,-0.57,-0.26,0,0,0,-7.08,-2.07,-6.45,4.49427676200867
,0,0.41,0.82,-0.28,0.29,0.28,1.13,-0.11,-7.14,-0.07,0.29,0,0,0,-6.96,-2.12,-6.56,4.5099630355835
,0,0.41,0.81,-0.29,0.29,0.79,0.35,0.22,-6.5,-0.17,-0.41,0,0,0,-6.94,-2.16,-6.57,4.53063344955444
,0,0.42,0.81,-0.29,0.29,0.73,-0.35,0.36,-5.72,0.38,-2.24,0,0,0,-6.98,-2.21,-6.51,4.54463362693787
,0,0.42,0.81,-0.29,0.3,0.6,-0.63,0.39,-5.79,0.81,-1.93,0,0,0,-7.09,-2.21,-6.39,4.56042051315308
,0,0.42,0.8,-0.3,0.31,0.01,-1.12,0.45,-5.77,0.65,-1.8,0,0,0,-7.17,-2.18,-6.31,4.57793307304382
,0,0.42,0.8,-0.3,0.31,-0.41,-1.57,0.58,-5.46,0.8,-2.12,0,0,0,-7.37,-2.07,-6.12,4.59433627128601
,0,0.42,0.79,-0.3,0.33,-0.62,-1.81,0.67,-5.87,0.64,-2.28,0,0,0,-7.62,-1.88,-5.87,4.61069488525391
,0,0.42,0.78,-0.3,0.36,-0.9,-2.25,0.89,-6.57,0,-2.45,0,0,0,-7.76,-1.76,-5.72,4.62780165672302
,0,0.41,0.78,-0.3,0.37,-0.93,-2.64,1.06,-7.24,-0.82,-2.98,0,0,0,-8.07,-1.5,-5.36,4.64452266693115
,0,0.41,0.76,-0.3,0.4,-0.88,-2.8,1.12,-8.84,-1.85,-2.99,0,0,0,-8.38,-1.24,-4.92,4.66024994850159
,0,0.41,0.75,-0.3,0.43,-0.58,-3.1,1.21,-9.28,-2.05,-3.17,0,0,0,-8.54,-1.11,-4.67,4.67817115783691
,0,0.41,0.74,-0.31,0.44,-0.15,-3.36,1.27,-9.66,-2.39,-3.7,0,0,0,-8.85,-0.88,-4.12,4.69514679908752
,0,0.41,0.72,-0.31,0.47,-0.04,-3.55,1.22,-10.3,-0.82,-4.25,0,0,0,-9.12,-0.66,-3.51,4.71079778671265
,0,0.4,0.7,-0.32,0.5,-0.03,-3.62,1.23,-10.78,-0.22,-4.6,0,0,0,-9.25,-0.55,-3.19,4.72824239730835
,0,0.4,0.68,-0.32,0.51,-0.26,-3.66,1.3,-10.9,0.15,-5.57,0,0,0,-9.46,-0.31,-2.53,4.74542784690857
,0,0.4,0.66,-0.33,0.54,-0.68,-3.57,1.29,-10.73,0.12,-6.04,0,0,0,-9.62,-0.04,-1.87,4.76101875305176
,0,0.39,0.64,-0.33,0.57,-0.87,-3.49,1.28,-10.81,0.21,-5.71,0,0,0,-9.68,0.08,-1.54,4.77855610847473
,0,0.38,0.63,-0.33,0.59,-1.26,-3.33,1.24,-11.37,-0.28,-5.53,0,0,0,-9.75,0.34,-0.9,4.79566979408264
,0,0.37,0.61,-0.32,0.62,-1.41,-3.18,1.16,-11.09,-0.49,-6.38,0,0,0,-9.78,0.58,-0.28,4.81105732917786
,0,0.36,0.6,-0.32,0.64,-1.4,-3.03,1.1,-11.04,-0.55,-6.4,0,0,0,-9.77,0.78,0.29,4.82847476005554
,0,0.35,0.59,-0.32,0.65,-1.33,-2.64,0.97,-10.57,-0.13,-7.45,0,0,0,-9.75,0.87,0.55,4.84596967697144
,0,0.34,0.58,-0.31,0.67,-1.16,-2.06,0.79,-8.15,-0.74,-9.23,0,0,0,-9.7,1.01,0.99,4.86092162132263
,0,0.34,0.57,-0.31,0.69,-1.02,-1.66,0.66,-7.47,-1.07,-9.56,0,0,0,-9.65,1.1,1.27,4.87861680984497
,0,0.33,0.57,-0.31,0.69,-0.79,-0.73,0.37,-6.92,-1.2,-9.16,0,0,0,-9.64,1.12,1.35,4.89630341529846
,0,0.33,0.57,-0.3,0.69,-0.46,0.18,0.09,-7.04,-0.18,-8.23,0,0,0,-9.64,1.14,1.37,4.9117534160614
,0,0.33,0.57,-0.3,0.69,-0.41,0.57,-0.06,-7.24,0.25,-9.01,0,0,0,-9.66,1.11,1.23,4.9291570186615
,0,0.33,0.58,-0.3,0.68,-0.5,1.46,-0.5,-15.26,-3.22,17.76,0,0,0,-9.68,1.05,1.1,4.94692230224609
,0,0.33,0.59,-0.29,0.68,0.05,1.05,-0.18,-12.88,-0.5,0.29,0,0,0,-9.71,0.98,0.88,4.9627411365509
,0,0.33,0.6,-0.29,0.67,0.19,0.98,-0.13,-10.92,-0.21,-1.25,0,0,0,-9.73,0.95,0.69,4.97989797592163
,0,0.33,0.6,-0.29,0.67,-0.01,1.02,-0.28,-10.53,-0.7,-1.29,0,0,0,-9.74,0.92,0.59,4.99826574325562
,0,0.33,0.61,-0.29,0.66,-0.1,1.22,-0.37,-10.15,1.19,-1.27,0,0,0,-9.76,0.86,0.37,5.01329636573792
,0,0.33,0.62,-0.28,0.65,-0.32,1.27,-0.36,-9.9,2.61,-1.78,0,0,0,-9.77,0.8,0.14,5.03035736083984
,0,0.33,0.63,-0.28,0.65,-0.97,1.27,-0.28,-9.45,2.14,-2.24,0,0,0,-9.77,0.77,0.02,5.04802346229553
,0,0.32,0.64,-0.27,0.65,-1.26,1.16,-0.17,-9.92,0.72,-1.31,0,0,0,-9.77,0.73,-0.17,5.06495356559753
,0,0.32,0.65,-0.26,0.64,-1.33,1.07,-0.12,-10.67,-0.03,-0.64,0,0,0,-9.77,0.72,-0.34,5.08093094825745
,0,0.32,0.65,-0.26,0.64,-0.75,0.76,-0.02,-10.6,-0.87,-0.46,0,0,0,-9.77,0.72,-0.41,5.09831070899963
,0,0.32,0.65,-0.25,0.64,0.24,0.66,0.08,-9.58,-0.34,-1.34,0,0,0,-9.76,0.74,-0.53,5.1153998374939
,0,0.32,0.66,-0.26,0.63,0.57,0.77,0.03,-8.82,1.58,-1.51,0,0,0,-9.75,0.74,-0.68,5.13131332397461
,0,0.33,0.66,-0.25,0.63,0.46,0.86,-0,-9.39,2.59,-0.95,0,0,0,-9.74,0.74,-0.77,5.14860367774963
,0,0.33,0.66,-0.25,0.62,0,0.94,-0.01,-9.89,2.65,-0.84,0,0,0,-9.73,0.73,-0.94,5.16570329666138
,0,0.33,0.67,-0.25,0.62,-0.33,0.85,-0.07,-9.74,1.93,-1.81,0,0,0,-9.71,0.73,-1.1,5.18152141571045
,0,0.33,0.67,-0.25,0.61,-0.3,0.82,-0.08,-9.87,1.82,-2.08,0,0,0,-9.7,0.72,-1.17,5.19892644882202
,0,0.33,0.68,-0.24,0.61,-0.19,0.72,-0.08,-10,1.21,-2.01,0,0,0,-9.69,0.71,-1.31,5.21512603759766
,0,0.33,0.68,-0.24,0.61,-0.17,0.65,-0.14,-9.89,1.26,-2.32,0,0,0,-9.67,0.69,-1.43,5.23228883743286
,0,0.33,0.69,-0.24,0.6,-0.25,0.65,-0.17,-9.97,1.91,-2.35,0,0,0,-9.66,0.68,-1.49,5.24875664710999
,0,0.33,0.69,-0.23,0.6,-0.52,0.6,-0.12,-9.81,0.96,-2.58,0,0,0,-9.65,0.67,-1.6,5.26505327224731
,0,0.32,0.69,-0.23,0.6,-0.59,0.56,-0.11,-10,0.19,-2.34,0,0,0,-9.63,0.67,-1.7,5.28103566169739
,0,0.32,0.7,-0.23,0.6,-0.39,0.56,-0.11,-9.83,-0.02,-2.75,0,0,0,-9.62,0.66,-1.75,5.29805445671082
,0,0.32,0.7,-0.23,0.6,-0.05,0.49,-0.1,-9.79,-0.15,-2.43,0,0,0,-9.6,0.65,-1.84,5.31427121162415
,0,0.32,0.7,-0.23,0.59,0.11,0.45,-0.08,-9.7,0.7,-2.16,0,0,0,-9.59,0.63,-1.93,5.33094167709351
,0,0.33,0.7,-0.23,0.59,0.25,0.38,-0.01,-9.73,0.82,-2.12,0,0,0,-9.58,0.63,-1.96,5.34876418113708
,0,0.33,0.7,-0.23,0.59,0.23,0.33,0.02,-9.48,1.51,-2.16,0,0,0,-9.57,0.62,-2.02,5.36438870429993
,0,0.33,0.71,-0.23,0.59,0.09,0.32,0.01,-9.29,0.89,-2.38,0,0,0,-9.56,0.62,-2.08,5.38081979751587
,0,0.33,0.71,-0.22,0.58,-0.08,0.28,0.01,-9.51,1.23,-2.1,0,0,0,-9.55,0.62,-2.11,5.39827823638916
,0,0.33,0.71,-0.22,0.58,-0.15,0.25,0,-9.49,0.72,-2.26,0,0,0,-9.54,0.63,-2.15,5.41454172134399
,0,0.33,0.71,-0.22,0.58,-0.12,0.23,0.01,-9.61,0.63,-2.25,0,0,0,-9.53,0.64,-2.19,5.43168973922729
,0,0.33,0.71,-0.22,0.58,-0.08,0.23,0.01,-9.58,0.63,-2.35,0,0,0,-9.52,0.64,-2.24,5.45042252540588
,0,0.33,0.71,-0.22,0.58,0.04,0.25,0.02,-9.78,0.88,-2.01,0,0,0,-9.51,0.64,-2.26,5.46739029884338
,0,0.33,0.71,-0.22,0.58,0.11,0.27,0.03,-9.54,0.89,-2.1,0,0,0,-9.5,0.64,-2.31,5.48243069648743
,0,0.33,0.72,-0.22,0.58,0.15,0.3,0.02,-9.59,0.84,-1.95,0,0,0,-9.49,0.64,-2.37,5.4994158744812
,0,0.33,0.72,-0.22,0.57,0.26,0.35,-0,-9.53,1.02,-1.72,0,0,0,-9.48,0.63,-2.4,5.51495671272278
,0,0.33,0.72,-0.22,0.57,0.39,0.46,-0.04,-9.28,1.58,-1.8,0,0,0,-9.46,0.61,-2.48,5.53177189826965
,0,0.34,0.72,-0.22,0.56,0.41,0.52,-0.07,-9.18,1.52,-1.91,0,0,0,-9.45,0.59,-2.53,5.54909610748291
,0,0.34,0.72,-0.22,0.56,0.35,0.64,-0.14,-9.34,1.58,-2.51,0,0,0,-9.42,0.55,-2.65,5.56344246864319
,0,0.34,0.73,-0.22,0.55,0.28,0.7,-0.19,-9.62,1.44,-2.37,0,0,0,-9.38,0.5,-2.79,5.58280277252197
,0,0.34,0.73,-0.22,0.55,0.22,0.81,-0.26,-9.77,1.51,-2.32,0,0,0,-9.36,0.47,-2.86,5.59868884086609
,0,0.34,0.73,-0.22,0.54,0.19,0.83,-0.29,-10.04,0.91,-2.11,0,0,0,-9.32,0.41,-3.01,5.61412024497986
,0,0.34,0.74,-0.23,0.54,0.24,0.85,-0.29,-10.14,1.46,-2.55,0,0,0,-9.27,0.34,-3.17,5.63133549690247
,0,0.34,0.74,-0.23,0.53,0.36,0.94,-0.38,-10.96,2.07,-1.92,0,0,0,-9.24,0.29,-3.26,5.64894819259644
,0,0.34,0.75,-0.23,0.52,0.31,0.94,-0.38,-10.61,1.84,-3.18,0,0,0,-9.18,0.2,-3.43,5.66454362869263
,0,0.35,0.75,-0.23,0.51,0.45,1.03,-0.42,-11.49,1.23,-2.35,0,0,0,-9.11,0.1,-3.61,5.6813702583313
,0,0.35,0.76,-0.23,0.5,0.56,1.04,-0.42,-11.43,1.29,-2.48,0,0,0,-9.07,0.05,-3.7,5.69865870475769
,0,0.35,0.76,-0.23,0.5,0.66,1.14,-0.43,-11.58,0.56,-1.44,0,0,0,-8.99,-0.06,-3.89,5.71416425704956
,0,0.35,0.77,-0.24,0.48,0.73,1.21,-0.45,-11.2,0.79,-1.22,0,0,0,-8.89,-0.2,-4.11,5.73205232620239
,0,0.36,0.77,-0.24,0.47,0.83,1.4,-0.47,-11.08,0.58,-1.11,0,0,0,-8.84,-0.28,-4.23,5.74900436401367
,0,0.36,0.78,-0.24,0.46,1.02,1.59,-0.52,-11.61,0.5,-1.21,0,0,0,-8.7,-0.44,-4.48,5.76409912109375
,0,0.36,0.78,-0.25,0.44,1.14,1.7,-0.54,-12.96,0.49,-0.55,0,0,0,-8.54,-0.64,-4.76,5.78135395050049
,0,0.37,0.79,-0.25,0.42,1.44,1.85,-0.46,-12.88,0.32,-1.06,0,0,0,-8.45,-0.75,-4.9,5.79894828796387
,0,0.38,0.79,-0.26,0.41,1.88,1.94,-0.32,-11.8,0.68,-3.52,0,0,0,-8.26,-0.98,-5.18,5.81420588493347
,0,0.39,0.79,-0.27,0.39,2.05,2.17,-0.35,-11.72,1.08,-4.89,0,0,0,-8.03,-1.24,-5.47,5.83215999603271
,0,0.4,0.8,-0.27,0.36,1.66,2.22,-0.38,-12.03,1.2,-4.15,0,0,0,-7.91,-1.36,-5.62,5.84902787208557
,0,0.4,0.8,-0.28,0.35,1.55,2.15,-0.31,-10.94,0.42,-5.03,0,0,0,-7.66,-1.58,-5.91,5.86458539962769
,0,0.41,0.8,-0.28,0.33,1.35,1.98,-0.25,-9.26,-0.33,-6.36,0,0,0,-7.41,-1.79,-6.16,5.88221549987793
,0,0.42,0.81,-0.28,0.31,1.26,1.9,-0.19,-9.26,-0.97,-5.8,0,0,0,-7.29,-1.88,-6.27,5.89984083175659
,0,0.42,0.81,-0.28,0.3,0.96,1.37,0.03,-9.01,-0.27,0.49,0,0,0,-7.1,-2.02,-6.44,5.91429901123047
,0,0.43,0.81,-0.29,0.29,0.97,0.58,0.32,-7.78,-0.58,0.01,0,0,0,-7.02,-2.1,-6.51,5.93235611915588
,0,0.43,0.8,-0.29,0.29,0.92,0.22,0.39,-6.9,-0.83,-0.4,0,0,0,-7.01,-2.13,-6.5,5.94999170303345
,0,0.43,0.8,-0.3,0.29,0.61,-0.48,0.4,-6.51,-0.03,-1.32,0,0,0,-7.07,-2.17,-6.43,5.96534490585327
,0,0.44,0.79,-0.3,0.3,0.38,-0.77,0.43,-5.87,-0.08,-1.79,0,0,0,-7.2,-2.14,-6.3,5.98196291923523
,0,0.44,0.79,-0.3,0.31,-0.01,-1.25,0.51,-5.72,0.01,-1.87,0,0,0,-7.28,-2.11,-6.21,5.99908971786499
,0,0.44,0.78,-0.31,0.32,-0.43,-1.7,0.62,-5.76,0.21,-1.93,0,0,0,-7.49,-1.98,-5.99,6.01438093185425
,0,0.44,0.78,-0.31,0.34,-0.82,-2.17,0.77,-6.47,-0.13,-1.99,0,0,0,-7.75,-1.79,-5.72,6.03226041793823
,0,0.43,0.77,-0.31,0.36,-0.93,-2.4,0.83,-6.82,-0.25,-2.21,0,0,0,-7.9,-1.68,-5.55,6.04939985275269
,0,0.43,0.76,-0.31,0.38,-1.01,-2.8,0.95,-8.03,-1.01,-3,0,0,0,-8.21,-1.43,-5.16,6.06409788131714
,0,0.42,0.75,-0.31,0.41,-0.85,-3.14,1.06,-8.91,-1.49,-3.59,0,0,0,-8.53,-1.17,-4.69,6.08240103721619
,0,0.42,0.73,-0.32,0.44,-0.68,-3.26,1.12,-9.24,-2.01,-3.78,0,0,0,-8.68,-1.05,-4.42,6.09997940063477
,0,0.42,0.72,-0.32,0.45,-0.37,-3.51,1.15,-10.05,-1.62,-4.09,0,0,0,-8.98,-0.82,-3.84,6.11544179916382
,0,0.41,0.7,-0.33,0.48,-0.33,-3.67,1.15,-10.79,-0.31,-4.79,0,0,0,-9.24,-0.59,-3.2,6.13241672515869
,0,0.41,0.68,-0.33,0.51,-0.39,-3.7,1.16,-10.9,0.06,-4.82,0,0,0,-9.36,-0.48,-2.87,6.14974236488342
,0,0.4,0.67,-0.33,0.53,-0.61,-3.67,1.2,-11.38,0.98,-5.04,0,0,0,-9.55,-0.23,-2.2,6.16515851020813
,0,0.39,0.65,-0.34,0.56,-0.99,-3.63,1.23,-11.52,0.75,-4.81,0,0,0,-9.68,0.01,-1.53,6.1835081577301
,0,0.38,0.63,-0.34,0.59,-1.15,-3.6,1.23,-11.46,0.91,-5.95,0,0,0,-9.76,0.27,-0.85,6.19993305206299
,0,0.38,0.62,-0.33,0.6,-1.52,-3.45,1.19,-11.56,0.47,-6.09,0,0,0,-9.78,0.4,-0.52,6.2147228717804
,0,0.36,0.6,-0.33,0.63,-1.7,-3.15,1.13,-11.13,-0.23,-6.59,0,0,0,-9.78,0.62,0.1,6.23321199417114
,0,0.35,0.59,-0.32,0.66,-1.67,-2.97,1.09,-10.81,-0.47,-6.94,0,0,0,-9.75,0.81,0.67,6.249844789505
,0,0.34,0.58,-0.32,0.67,-1.46,-2.48,0.93,-9.43,-0.85,-8.58,0,0,0,-9.72,0.88,0.91,6.26530599594116
,0,0.34,0.57,-0.31,0.68,-1.08,-1.79,0.78,-7.65,-1.4,-9.08,0,0,0,-9.66,1.01,1.3,6.28296995162964
,0,0.33,0.56,-0.31,0.69,-0.86,-1.37,0.64,-6.93,-1.35,-9.11,0,0,0,-9.62,1.1,1.53,6.2997510433197
,0,0.33,0.56,-0.31,0.7,-0.44,-0.49,0.32,-6.67,-0.63,-8.57,0,0,0,-9.61,1.12,1.58,6.31500864028931
,0,0.33,0.56,-0.31,0.7,-0.17,0.35,0.06,-6.15,0.34,-8.89,0,0,0,-9.61,1.14,1.56,6.33398580551147
,0,0.33,0.57,-0.3,0.69,-0.14,0.75,-0.04,-6.34,0.41,-9.21,0,0,0,-9.64,1.11,1.39,6.35026860237122
,0,0.33,0.57,-0.3,0.69,-0.39,1.45,-0.42,-9.49,0.69,-1.41,0,0,0,-9.66,1.06,1.26,6.36521601676941
,0,0.33,0.58,-0.3,0.68,0.46,0.98,0.1,-12.79,1.53,2.44,0,0,0,-9.69,1.04,1.03,6.38382434844971
,0,0.33,0.59,-0.29,0.68,-0.31,0.75,0.07,-12.03,-2.49,1.7,0,0,0,-9.7,1.04,0.9,6.40096855163574
,0,0.33,0.59,-0.29,0.68,-0.01,0.8,-0.08,-11.49,-1.85,-0.24,0,0,0,-9.71,1.04,0.82,6.4161102771759
,0,0.33,0.6,-0.29,0.67,-0.14,1.07,-0.28,-10.86,-0.34,-0.56,0,0,0,-9.73,0.99,0.64,6.43440508842468
,0,0.34,0.6,-0.29,0.66,-0.14,1.15,-0.25,-10.23,2.15,-1.68,0,0,0,-9.75,0.95,0.43,6.45073199272156
,0,0.33,0.61,-0.28,0.66,-0.68,1.13,-0.19,-9.78,1.62,-2.92,0,0,0,-9.75,0.93,0.33,6.46570730209351
,0,0.33,0.62,-0.27,0.66,-1.23,1.14,-0.17,-10.3,1.45,-2.21,0,0,0,-9.76,0.89,0.13,6.4848039150238
,0,0.32,0.63,-0.26,0.65,-1.48,1.09,-0.15,-10.51,1.11,-2.16,0,0,0,-9.76,0.86,-0.03,6.50077795982361
,0,0.32,0.64,-0.26,0.65,-1.39,0.88,-0.06,-10.53,-0.24,-0.38,0,0,0,-9.76,0.85,-0.1,6.51577615737915
,0,0.32,0.64,-0.25,0.65,-0.27,0.66,0.11,-9.39,-1.28,-1.49,0,0,0,-9.76,0.87,-0.23,6.53435063362122
,0,0.32,0.64,-0.25,0.65,0.25,0.61,0.14,-9.45,-1.47,-0.89,0,0,0,-9.75,0.89,-0.34,6.55095911026001
,0,0.33,0.64,-0.25,0.64,1,0.54,0.12,-9.58,0.66,-1.04,0,0,0,-9.75,0.9,-0.4,6.56585454940796
,0,0.33,0.65,-0.26,0.64,0.91,0.62,0.1,-10.01,1.9,-0.78,0,0,0,-9.74,0.91,-0.53,6.58436107635498
,0,0.34,0.65,-0.26,0.63,0.81,0.68,0.1,-10.17,2.64,-0.88,0,0,0,-9.73,0.92,-0.68,6.60086679458618
,0,0.34,0.65,-0.26,0.63,0.32,0.73,0.03,-9.71,2.37,-1.53,0,0,0,-9.73,0.92,-0.75,6.61580657958984
,0,0.34,0.65,-0.26,0.62,0.13,0.73,-0.03,-9.64,2.3,-1.18,0,0,0,-9.72,0.92,-0.89,6.63429856300354
,0,0.35,0.66,-0.26,0.62,0.21,0.73,-0.05,-9.6,1.84,-1.76,0,0,0,-9.7,0.9,-1.03,6.65053558349609
,0,0.35,0.66,-0.26,0.62,0.19,0.67,-0.12,-9.97,1.46,-1.71,0,0,0,-9.7,0.89,-1.1,6.66583347320557
,0,0.35,0.66,-0.26,0.61,0.17,0.62,-0.16,-10.3,1.23,-1.19,0,0,0,-9.69,0.85,-1.22,6.68424677848816
,0,0.35,0.67,-0.25,0.61,0.12,0.58,-0.15,-10.03,1.33,-1.5,0,0,0,-9.68,0.82,-1.33,6.70103907585144
,0,0.35,0.67,-0.25,0.6,0.05,0.57,-0.14,-9.58,1.1,-1.99,0,0,0,-9.67,0.81,-1.38,6.71562099456787
,0,0.35,0.67,-0.25,0.6,0.14,0.57,-0.13,-9.6,0.49,-2.23,0,0,0,-9.66,0.78,-1.49,6.73439002037048
,0,0.35,0.68,-0.26,0.59,0.25,0.55,-0.13,-9.58,0.33,-2.14,0,0,0,-9.64,0.75,-1.59,6.7509925365448
,0,0.36,0.68,-0.26,0.59,0.56,0.49,-0.11,-9.4,0.66,-2.4,0,0,0,-9.63,0.73,-1.64,6.76634168624878
,0,0.36,0.68,-0.26,0.59,0.66,0.47,-0.11,-9.41,1.16,-2.11,0,0,0,-9.62,0.69,-1.74,6.7851836681366
,0,0.36,0.68,-0.26,0.58,0.44,0.45,-0.11,-9.35,1.78,-1.87,0,0,0,-9.61,0.65,-1.83,6.80418872833252
,0,0.37,0.68,-0.26,0.58,0.29,0.44,-0.11,-9.48,1.6,-1.76,0,0,0,-9.59,0.62,-1.92,6.82244515419006
,0,0.37,0.68,-0.26,0.57,0.03,0.43,-0.13,-9.55,1.53,-1.87,0,0,0,-9.58,0.61,-1.96,6.84016442298889
,0,0.37,0.69,-0.26,0.57,-0.04,0.42,-0.13,-9.65,1.05,-1.86,0,0,0,-9.57,0.59,-2.04,6.85817575454712
,0,0.37,0.69,-0.26,0.57,-0.03,0.42,-0.15,-9.58,1.09,-1.87,0,0,0,-9.55,0.56,-2.11,6.87510657310486
,0,0.37,0.69,-0.26,0.57,-0,0.45,-0.15,-9.54,1.12,-1.9,0,0,0,-9.54,0.53,-2.2,6.89154887199402
,0,0.37,0.69,-0.26,0.56,0.02,0.48,-0.16,-9.23,1,-2.88,0,0,0,-9.53,0.52,-2.24,6.90970921516418
,0,0.37,0.7,-0.26,0.56,0.03,0.55,-0.18,-9.38,0.47,-2.46,0,0,0,-9.5,0.48,-2.34,6.9254002571106
,0,0.37,0.7,-0.26,0.56,0.08,0.56,-0.19,-9.58,0.83,-2.23,0,0,0,-9.48,0.44,-2.45,6.94111227989197
,0,0.37,0.7,-0.26,0.55,0.07,0.55,-0.19,-9.41,0.66,-2.54,0,0,0,-9.47,0.43,-2.5,6.96031355857849
,0,0.37,0.71,-0.26,0.55,0.08,0.56,-0.18,-9.67,0.76,-2.92,0,0,0,-9.44,0.39,-2.6,6.97593522071838
,0,0.37,0.71,-0.26,0.54,0.06,0.57,-0.19,-9.88,0.83,-2.67,0,0,0,-9.41,0.35,-2.71,6.99188995361328
,0,0.37,0.71,-0.26,0.54,-0.02,0.56,-0.19,-9.96,0.47,-2.75,0,0,0,-9.4,0.33,-2.76,7.00900506973267
,0,0.37,0.71,-0.25,0.54,-0.03,0.54,-0.2,-9.86,0.44,-2.72,0,0,0,-9.37,0.3,-2.85,7.02556085586548
,0,0.37,0.72,-0.25,0.53,-0.01,0.55,-0.21,-9.86,0.4,-2.84,0,0,0,-9.34,0.26,-2.95,7.0415301322937
,0,0.37,0.72,-0.25,0.53,0.05,0.58,-0.22,-9.84,0.46,-3.06,0,0,0,-9.32,0.24,-3.01,7.05943179130554
,0,0.37,0.72,-0.25,0.53,0.16,0.66,-0.22,-9.92,0.04,-2.65,0,0,0,-9.29,0.19,-3.12,7.07512855529785
,0,0.37,0.73,-0.25,0.52,0.23,0.65,-0.24,-9.59,0.15,-3.21,0,0,0,-9.24,0.12,-3.25,7.0913872718811
,0,0.37,0.73,-0.26,0.51,0.48,0.8,-0.31,-10.3,1.72,-2.06,0,0,0,-9.22,0.08,-3.32,7.10992074012756
,0,0.37,0.73,-0.26,0.51,0.49,0.92,-0.35,-10.33,1.04,-1.85,0,0,0,-9.16,0,-3.48,7.12595224380493
,0,0.38,0.74,-0.26,0.5,0.56,1.01,-0.41,-10.63,1.39,-1.53,0,0,0,-9.09,-0.12,-3.67,7.14156556129456
,0,0.38,0.75,-0.26,0.48,0.62,1.17,-0.5,-10.97,1.32,-1.33,0,0,0,-9.04,-0.19,-3.77,7.15979361534119
,0,0.38,0.75,-0.26,0.48,0.58,1.35,-0.59,-11.98,0.48,-1.01,0,0,0,-8.94,-0.33,-3.99,7.17620062828064
,0,0.38,0.76,-0.27,0.46,0.6,1.4,-0.63,-12.29,-0.21,-1.13,0,0,0,-8.82,-0.49,-4.24,7.19163918495178
,0,0.38,0.76,-0.27,0.45,0.71,1.57,-0.69,-12.45,-0.32,-1.11,0,0,0,-8.75,-0.58,-4.36,7.21024394035339
,0,0.38,0.77,-0.27,0.44,0.83,1.7,-0.76,-13.42,0.29,-0.25,0,0,0,-8.6,-0.78,-4.64,7.22631502151489
,0,0.39,0.78,-0.27,0.42,0.87,1.73,-0.79,-13.16,1.03,-0.36,0,0,0,-8.42,-0.99,-4.91,7.24201607704163
,0,0.39,0.78,-0.28,0.4,0.84,1.82,-0.78,-12.52,1.13,-1.5,0,0,0,-8.33,-1.09,-5.05,7.26041913032532
,0,0.39,0.79,-0.28,0.39,1.02,2.09,-0.72,-12.11,2.01,-4.18,0,0,0,-8.11,-1.31,-5.35,7.27645587921143
,0,0.39,0.8,-0.28,0.36,0.95,2.25,-0.79,-13.1,1.45,-4.01,0,0,0,-7.85,-1.52,-5.67,7.29253029823303
,0,0.4,0.8,-0.28,0.34,0.79,2.18,-0.77,-11.74,1.52,-4.74,0,0,0,-7.71,-1.63,-5.82,7.31062722206116
,0,0.4,0.81,-0.28,0.33,0.59,2.06,-0.71,-9.47,-0.7,-8.78,0,0,0,-7.45,-1.81,-6.11,7.32698726654053
,0,0.4,0.82,-0.27,0.32,0.32,2.02,-0.65,-9.06,-0.58,-6.74,0,0,0,-7.19,-1.92,-6.38,7.34235906600952
,0,0.4,0.82,-0.27,0.3,0.18,1.72,-0.44,-8.76,0,-3.01,0,0,0,-7.07,-1.97,-6.49,7.36034226417542
,0,0.4,0.82,-0.27,0.3,-0.02,0.95,-0.15,-8.47,-0.32,1.33,0,0,0,-6.91,-2,-6.65,7.3768458366394
,0,0.4,0.82,-0.27,0.29,0.16,0.51,0.05,-7.07,1.31,0.58,0,0,0,-6.88,-2.01,-6.69,7.39203143119812
,0,0.41,0.82,-0.27,0.3,0.25,-0.27,0.33,-6.81,0.87,1.07,0,0,0,-6.9,-2,-6.66,7.4107608795166
,0,0.41,0.82,-0.27,0.3,0.35,-1.02,0.44,-5.71,0.19,-1.04,0,0,0,-7.03,-1.98,-6.53,7.42714405059814
,0,0.41,0.81,-0.28,0.31,0.28,-1.3,0.47,-5.89,0.53,-1.23,0,0,0,-7.22,-1.95,-6.33,7.44258308410645
,0,0.41,0.8,-0.29,0.33,0.06,-1.84,0.5,-5.86,0.18,-1.8,0,0,0,-7.34,-1.92,-6.2,7.46026992797852
,0,0.41,0.8,-0.29,0.34,-0.21,-2.34,0.65,-5.88,0.64,-1.88,0,0,0,-7.63,-1.81,-5.88,7.47704219818115
,0,0.41,0.78,-0.29,0.36,-0.38,-2.58,0.78,-6.88,1.5,-1.88,0,0,0,-7.95,-1.63,-5.49,7.49270033836365
,0,0.4,0.77,-0.3,0.4,-0.84,-3.05,1.09,-7.1,1.34,-1.99,0,0,0,-8.13,-1.5,-5.27,7.51103639602661
,0,0.4,0.76,-0.3,0.41,-0.94,-3.44,1.3,-8.37,-0.48,-3.13,0,0,0,-8.48,-1.21,-4.75,7.5270254611969
,0,0.4,0.74,-0.3,0.45,-0.83,-3.6,1.37,-9.7,-0.76,-3.68,0,0,0,-8.83,-0.9,-4.15,7.5429949760437
,0,0.39,0.72,-0.3,0.48,-0.53,-3.86,1.48,-9.74,-1.22,-3.63,0,0,0,-8.99,-0.76,-3.82,7.56073498725891
,0,0.39,0.71,-0.31,0.5,-0.33,-4.04,1.5,-12.61,-1.85,-4.57,0,0,0,-9.28,-0.47,-3.12,7.57726240158081
,0,0.39,0.69,-0.31,0.53,-0.25,-4.14,1.49,-11.7,-1.36,-6.37,0,0,0,-9.51,-0.18,-2.36,7.5927996635437
,0,0.38,0.66,-0.32,0.56,-0.1,-4.23,1.47,-11.27,-0.9,-7.02,0,0,0,-9.6,-0.05,-1.97,7.61068654060364
,0,0.38,0.65,-0.32,0.58,-0.4,-3.98,1.42,-11.07,0.45,-7.81,0,0,0,-9.72,0.22,-1.21,7.62741827964783
,0,0.37,0.62,-0.32,0.61,-0.68,-3.79,1.39,-11.24,0.24,-7.29,0,0,0,-9.78,0.49,-0.51,7.64258670806885
,0,0.36,0.6,-0.32,0.64,-1.21,-3.43,1.25,-11.17,-0.02,-7.55,0,0,0,-9.78,0.62,-0.17,7.66055536270142
,0,0.36,0.59,-0.32,0.65,-1.34,-3.05,1.07,-11.21,-0.34,-7.63,0,0,0,-9.76,0.82,0.43,7.67711734771729
,0,0.35,0.58,-0.32,0.67,-1.27,-2.81,1.01,-10.58,-0.33,-7.8,0,0,0,-9.7,0.99,0.96,7.69262957572937
,0,0.34,0.56,-0.31,0.69,-1.07,-2.25,0.92,-8.87,-0.55,-8.48,0,0,0,-9.67,1.07,1.18,7.71087002754211
,0,0.34,0.56,-0.31,0.69,-0.7,-1.47,0.81,-7.41,-1.04,-8.89,0,0,0,-9.61,1.2,1.51,7.72780895233154
,0,0.33,0.55,-0.3,0.7,-0.47,-1.05,0.73,-6.55,-1.27,-8.18,0,0,0,-9.57,1.32,1.68,7.74276781082153
,0,0.34,0.55,-0.3,0.7,-0.09,-0.19,0.45,-6.7,-1.25,-7.59,0,0,0,-9.56,1.36,1.69,7.76105213165283
,0,0.34,0.55,-0.3,0.7,-0.07,0.54,0.08,-7.02,-0.7,-7.36,0,0,0,-9.56,1.39,1.63,7.7773916721344
,0,0.34,0.56,-0.3,0.7,-0.08,0.91,-0.1,-8.82,1.41,-4.66,0,0,0,-9.6,1.35,1.43,7.79278802871704
,0,0.34,0.57,-0.29,0.69,-0.06,1.43,-0.28,-15.06,1.42,19.63,0,0,0,-9.62,1.32,1.3,7.81099462509155
,0,0.34,0.57,-0.29,0.69,-0.31,1,-0.05,-13.95,-2.02,2.84,0,0,0,-9.65,1.31,1.11,7.82781648635864
,0,0.34,0.58,-0.29,0.68,-0.17,0.97,-0.04,-12.17,-1.56,-1.76,0,0,0,-9.67,1.28,0.92,7.84264039993286
,0,0.34,0.59,-0.29,0.67,-0.39,1.12,-0.34,-11.04,-2.38,-1.27,0,0,0,-9.69,1.25,0.82,7.8612916469574
,0,0.34,0.59,-0.29,0.67,0.09,1.3,-0.31,-10.8,1.07,-0.34,0,0,0,-9.71,1.18,0.58,7.87812829017639
,0,0.34,0.6,-0.28,0.66,0.01,1.3,-0.26,-10.95,2.45,-1.43,0,0,0,-9.73,1.13,0.34,7.89299821853638
,0,0.34,0.61,-0.28,0.66,-0.52,1.19,-0.23,-10.59,3.05,-2.22,0,0,0,-9.74,1.11,0.24,7.91085386276245
,0,0.34,0.62,-0.27,0.66,-1.07,1.02,-0.21,-9.74,2.4,-2.25,0,0,0,-9.74,1.06,0.06,7.92775225639343
,0,0.33,0.63,-0.26,0.65,-1.16,0.93,-0.17,-9.64,0.08,-0.9,0,0,0,-9.75,1.04,-0.08,7.94323587417603
,0,0.33,0.63,-0.26,0.65,-0.57,0.7,-0.01,-9.73,-0.36,-0.73,0,0,0,-9.74,1.04,-0.14,7.96076130867004
,0,0.34,0.63,-0.26,0.65,0.53,0.57,0.07,-9.61,-1.15,-0.67,0,0,0,-9.74,1.05,-0.25,7.97747898101807
,0,0.34,0.63,-0.26,0.64,0.89,0.58,0.04,-9.77,1.23,-1.43,0,0,0,-9.74,1.04,-0.38,7.99298024177551
,0,0.35,0.64,-0.26,0.63,0.81,0.68,-0.02,-9.88,1.63,-1.2,0,0,0,-9.73,1.04,-0.46,8.01099967956543
,0,0.35,0.64,-0.26,0.63,0.45,0.79,-0.01,-10.01,2.95,-0.7,0,0,0,-9.73,1.04,-0.61,8.02800416946411
,0,0.35,0.64,-0.26,0.63,0.18,0.8,-0.02,-9.73,1.95,-1.57,0,0,0,-9.72,1.03,-0.77,8.04278421401978
,0,0.36,0.65,-0.26,0.62,-0.07,0.78,-0.03,-9.75,3.25,-1.05,0,0,0,-9.71,1.03,-0.84,8.06129598617554
,0,0.36,0.65,-0.26,0.62,-0.17,0.71,-0.08,-9.99,2.25,-1.53,0,0,0,-9.7,1.02,-0.97,8.07775616645813
,0,0.36,0.66,-0.26,0.62,-0.24,0.67,-0.12,-10.15,1.39,-1.8,0,0,0,-9.69,1,-1.09,8.09329986572266
,0,0.35,0.66,-0.25,0.61,-0.23,0.58,-0.15,-10.07,1.19,-1.53,0,0,0,-9.68,0.99,-1.14,8.11141443252563
,0,0.35,0.66,-0.25,0.61,-0.3,0.55,-0.14,-9.84,1.42,-1.62,0,0,0,-9.67,0.97,-1.24,8.12807774543762
,0,0.35,0.67,-0.25,0.61,-0.34,0.54,-0.11,-9.31,1.39,-2.21,0,0,0,-9.66,0.95,-1.33,8.14391016960144
,0,0.35,0.67,-0.24,0.61,-0.33,0.56,-0.09,-9.28,1.14,-2.1,0,0,0,-9.66,0.95,-1.38,8.1608579158783
,0,0.35,0.67,-0.24,0.6,-0.08,0.53,-0.07,-9.37,0.58,-2.14,0,0,0,-9.64,0.94,-1.48,8.17790937423706
,0,0.35,0.68,-0.24,0.6,0.06,0.48,-0.06,-9.45,0.87,-1.71,0,0,0,-9.63,0.92,-1.57,8.19311428070068
,0,0.35,0.68,-0.24,0.6,0.2,0.43,-0.06,-9.66,1.49,-1.49,0,0,0,-9.62,0.92,-1.61,8.21127510070801
,0,0.35,0.68,-0.24,0.6,0.16,0.39,-0.03,-9.52,1.39,-2.28,0,0,0,-9.61,0.9,-1.69,8.22837018966675
,0,0.35,0.68,-0.24,0.59,0,0.38,-0.04,-9.63,1.23,-2.05,0,0,0,-9.6,0.9,-1.76,8.2436363697052
,0,0.35,0.68,-0.24,0.59,-0.13,0.35,-0.05,-9.81,1.06,-1.72,0,0,0,-9.59,0.89,-1.79,8.2613697052002
,0,0.35,0.69,-0.24,0.59,-0.03,0.3,-0.04,-9.95,0.68,-1.65,0,0,0,-9.58,0.89,-1.85,8.27856111526489
,0,0.35,0.69,-0.24,0.59,0.06,0.29,-0.04,-10.01,1.12,-1.5,0,0,0,-9.57,0.88,-1.9,8.29393029212952
,0,0.36,0.69,-0.24,0.59,0.12,0.29,-0.03,-9.82,1.45,-1.56,0,0,0,-9.57,0.87,-1.93,8.31191921234131
,0,0.36,0.69,-0.24,0.58,0.12,0.32,-0.03,-9.6,1.43,-2.03,0,0,0,-9.56,0.86,-1.99,8.32852244377136
,0,0.36,0.69,-0.24,0.58,0.13,0.34,-0.04,-9.45,1.03,-1.98,0,0,0,-9.54,0.85,-2.06,8.34326124191284
,0,0.36,0.69,-0.24,0.58,0.23,0.39,-0.07,-9.41,1.02,-2.02,0,0,0,-9.54,0.84,-2.1,8.36132407188416
,0,0.36,0.69,-0.24,0.58,0.35,0.45,-0.11,-9.49,1.18,-2,0,0,0,-9.52,0.8,-2.18,8.3782696723938
,0,0.36,0.7,-0.24,0.57,0.39,0.5,-0.13,-9.5,1.55,-2.04,0,0,0,-9.5,0.77,-2.28,8.39323759078979
,0,0.37,0.7,-0.24,0.56,0.37,0.6,-0.17,-9.53,1.85,-2.18,0,0,0,-9.49,0.75,-2.34,8.41146802902222
,0,0.37,0.7,-0.24,0.56,0.27,0.64,-0.22,-9.49,1.49,-2.09,0,0,0,-9.46,0.7,-2.46,8.42935276031494
,0,0.37,0.71,-0.24,0.56,0.27,0.69,-0.28,-9.67,0.81,-2.01,0,0,0,-9.43,0.64,-2.58,8.44446754455566
,0,0.37,0.71,-0.24,0.55,0.32,0.7,-0.3,-9.61,0.54,-2.34,0,0,0,-9.4,0.56,-2.72,8.4618079662323
,0,0.37,0.71,-0.25,0.55,0.46,0.75,-0.31,-9.76,0.97,-2.55,0,0,0,-9.38,0.52,-2.79,8.47904920578003
,0,0.37,0.72,-0.25,0.54,0.56,0.8,-0.34,-9.81,0.83,-2.51,0,0,0,-9.34,0.43,-2.94,8.49403429031372
,0,0.37,0.72,-0.25,0.53,0.6,0.84,-0.39,-9.6,1.14,-2.74,0,0,0,-9.32,0.38,-3.01,8.51182150840759
,0,0.38,0.72,-0.25,0.52,0.66,0.92,-0.43,-10.36,2.96,-2.03,0,0,0,-9.27,0.26,-3.18,8.52888560295105
,0,0.38,0.73,-0.26,0.51,0.57,0.94,-0.43,-10.99,1.57,-1.01,0,0,0,-9.21,0.15,-3.35,8.54413676261902
,0,0.38,0.73,-0.26,0.5,0.57,1.09,-0.51,-11.47,1.54,-1.28,0,0,0,-9.14,0.02,-3.54,8.56170439720154
,0,0.38,0.74,-0.26,0.5,0.52,1.14,-0.56,-11.38,0.97,-2.03,0,0,0,-9.1,-0.04,-3.64,8.57923269271851
,0,0.38,0.74,-0.26,0.48,0.52,1.22,-0.59,-12.2,-0.5,-0.97,0,0,0,-9.01,-0.18,-3.85,8.59409427642822
,0,0.38,0.75,-0.27,0.47,0.6,1.26,-0.61,-11.89,-0.8,-1.24,0,0,0,-8.96,-0.25,-3.96,8.61190056800842
,0,0.39,0.75,-0.27,0.46,1.12,1.67,-0.75,-12.33,-1.62,-0.05,0,0,0,-8.84,-0.45,-4.21,8.62971615791321
,0,0.39,0.76,-0.27,0.44,1.4,1.75,-0.78,-12.77,-0.92,-0.35,0,0,0,-8.68,-0.68,-4.49,8.6445209980011
,0,0.4,0.77,-0.28,0.42,1.54,1.82,-0.83,-12.92,0.76,-0.84,0,0,0,-8.5,-0.96,-4.77,8.66193842887878
,0,0.4,0.77,-0.29,0.41,1.64,2.03,-0.83,-11.55,0.93,-2.51,0,0,0,-8.4,-1.11,-4.92,8.67992925643921
,0,0.4,0.78,-0.29,0.38,1.6,2.17,-0.85,-12.44,2.25,-5.4,0,0,0,-8.17,-1.4,-5.22,8.69523477554321
,0,0.41,0.78,-0.3,0.36,1.35,2.25,-0.93,-12.66,1.53,-4.52,0,0,0,-7.91,-1.67,-5.53,8.71216440200806
,0,0.41,0.79,-0.3,0.35,0.92,2.2,-0.92,-10.91,0.65,-6.46,0,0,0,-7.78,-1.79,-5.69,8.73034048080444
,0,0.41,0.8,-0.3,0.33,0.47,2.07,-0.87,-9.59,0.12,-6.73,0,0,0,-7.51,-1.99,-5.97,8.74653673171997
,0,0.41,0.81,-0.29,0.31,0.1,1.99,-0.81,-9.81,0.66,-0.8,0,0,0,-7.25,-2.1,-6.25,8.76348376274109
,0,0.41,0.81,-0.29,0.3,-0.16,1.54,-0.45,-9.04,0.06,-0.22,0,0,0,-7.15,-2.12,-6.36,8.78039264678955
,0,0.41,0.81,-0.28,0.3,0.07,0.79,-0.07,-7.29,0.62,-0.42,0,0,0,-7.02,-2.14,-6.49,8.79631423950195
,0,0.41,0.81,-0.29,0.29,0.2,0.41,0.1,-6.71,0.66,-0.87,0,0,0,-7,-2.15,-6.51,8.81325721740723
,0,0.42,0.81,-0.29,0.29,0.34,-0.3,0.28,-6.42,-0.14,-1.12,0,0,0,-7.02,-2.16,-6.48,8.83066725730896
,0,0.42,0.81,-0.29,0.3,0.33,-0.89,0.34,-5.99,0.03,-1.54,0,0,0,-7.13,-2.16,-6.37,8.8467230796814
,0,0.42,0.8,-0.3,0.31,0.26,-1.17,0.37,-5.79,0.05,-1.82,0,0,0,-7.3,-2.13,-6.18,8.86294054985046
,0,0.42,0.8,-0.3,0.32,0.02,-1.68,0.46,-5.57,0.18,-2.55,0,0,0,-7.41,-2.1,-6.06,8.88046264648438
,0,0.42,0.79,-0.31,0.33,-0.21,-2.14,0.67,-6.15,0.3,-2.38,0,0,0,-7.67,-1.99,-5.77,8.89607262611389
,0,0.42,0.78,-0.31,0.36,-0.31,-2.35,0.79,-6.56,0.27,-2.31,0,0,0,-7.96,-1.82,-5.41,8.91305208206177
,0,0.42,0.77,-0.31,0.37,-0.41,-2.69,1.01,-7.3,0.31,-2.74,0,0,0,-8.12,-1.72,-5.21,8.93056893348694
,0,0.41,0.76,-0.32,0.4,-0.55,-2.99,1.17,-8.8,-0.43,-3.59,0,0,0,-8.44,-1.49,-4.75,8.94692492485046
,0,0.41,0.74,-0.32,0.43,-0.58,-3.12,1.24,-9.71,-1.05,-3.72,0,0,0,-8.75,-1.23,-4.24,8.96329975128174
,0,0.41,0.72,-0.32,0.46,-0.55,-3.31,1.28,-10.03,-1.2,-3.86,0,0,0,-8.89,-1.1,-3.97,8.9810094833374
,0,0.4,0.71,-0.33,0.47,-0.55,-3.5,1.28,-10.74,-0.62,-4.01,0,0,0,-9.16,-0.84,-3.37,8.99679350852966
,0,0.4,0.69,-0.33,0.5,-0.54,-3.59,1.29,-11.09,0.19,-4.72,0,0,0,-9.4,-0.57,-2.73,9.01298666000366
,0,0.39,0.67,-0.33,0.53,-0.63,-3.68,1.33,-11.34,0.44,-4.86,0,0,0,-9.49,-0.44,-2.39,9.03100657463074
,0,0.39,0.66,-0.33,0.55,-0.86,-3.7,1.37,-11.46,0.49,-5.38,0,0,0,-9.65,-0.15,-1.71,9.04754567146301
,0,0.38,0.64,-0.33,0.58,-1.05,-3.69,1.36,-11.44,0.62,-5.6,0,0,0,-9.75,0.12,-1.02,9.06446099281311
,0,0.37,0.62,-0.33,0.61,-1.37,-3.56,1.29,-11.58,0.64,-5.97,0,0,0,-9.77,0.25,-0.69,9.08162522315979
,0,0.36,0.61,-0.33,0.63,-1.67,-3.32,1.24,-11.55,-0.12,-6.14,0,0,0,-9.79,0.5,-0.03,9.09806275367737
,0,0.35,0.59,-0.32,0.65,-1.65,-3.15,1.21,-10.75,-1.01,-7.07,0,0,0,-9.76,0.72,0.56,9.11447358131409
,0,0.34,0.58,-0.32,0.67,-1.4,-2.75,1.11,-10.03,-1.19,-7.49,0,0,0,-9.73,0.82,0.83,9.13178133964539
,0,0.33,0.57,-0.31,0.68,-0.99,-2.12,0.97,-7.22,-1.52,-8.97,0,0,0,-9.67,0.98,1.28,9.14862322807312
,0,0.33,0.56,-0.31,0.7,-0.78,-1.68,0.87,-6.39,-1.7,-8.9,0,0,0,-9.61,1.11,1.56,9.16465163230896
,0,0.33,0.55,-0.31,0.7,-0.39,-0.72,0.53,-6.68,-0.22,-7.32,0,0,0,-9.59,1.16,1.63,9.18217968940735
,0,0.33,0.56,-0.3,0.7,-0.05,0.2,0.21,-6.07,0.27,-7.98,0,0,0,-9.59,1.2,1.64,9.19921517372131
,0,0.33,0.56,-0.3,0.7,-0.03,1.02,-0.12,-8.96,2.13,-3.31,0,0,0,-9.61,1.2,1.49,9.21474385261536
,0,0.33,0.57,-0.3,0.69,-0.2,1.41,-0.35,-13.03,2.19,11.13,0,0,0,-9.64,1.16,1.36,9.23214340209961
,0,0.34,0.58,-0.3,0.68,0.56,1.25,-0.07,-13.26,-1.84,2.08,0,0,0,-9.67,1.13,1.09,9.24929261207581
,0,0.34,0.58,-0.3,0.68,0.02,0.95,-0.05,-12.87,-1.01,-0.39,0,0,0,-9.69,1.12,0.91,9.26498484611511
,0,0.34,0.59,-0.29,0.67,0.19,1.02,-0.12,-11.94,-0.85,-2.07,0,0,0,-9.7,1.11,0.81,9.28246545791626
,0,0.34,0.59,-0.29,0.67,-0.17,1.21,-0.41,-10.89,1.83,-1.72,0,0,0,-9.73,1.04,0.6,9.29927372932434
,0,0.34,0.61,-0.29,0.66,-0.42,1.35,-0.28,-10.86,1.78,-1.75,0,0,0,-9.75,0.97,0.35,9.31472253799438
,0,0.34,0.62,-0.28,0.65,-0.75,1.38,-0.27,-10.58,1.88,-1.9,0,0,0,-9.75,0.95,0.23,9.33243560791016
,0,0.33,0.62,-0.27,0.65,-1.27,1.25,-0.2,-9.64,1.14,-2.92,0,0,0,-9.76,0.9,0.01,9.34960627555847
,0,0.33,0.63,-0.26,0.65,-1.38,1.03,-0.17,-10.08,0.28,-1.39,0,0,0,-9.76,0.87,-0.17,9.36494374275208
,0,0.32,0.64,-0.26,0.65,-1.06,0.9,-0.11,-10.09,0.39,-1.02,0,0,0,-9.76,0.86,-0.25,9.38218069076538
,0,0.32,0.64,-0.26,0.64,-0.1,0.68,0.03,-9.35,-0.73,-1.17,0,0,0,-9.76,0.86,-0.38,9.39872860908508
,0,0.33,0.65,-0.26,0.64,0.34,0.64,0.05,-9.59,0.4,-0.7,0,0,0,-9.75,0.87,-0.51,9.41478419303894
,0,0.34,0.65,-0.26,0.63,0.8,0.63,0.04,-9.84,1.47,-0.33,0,0,0,-9.74,0.87,-0.64,9.43270206451416
,0,0.34,0.65,-0.26,0.63,0.59,0.68,0.03,-10.15,2.22,-0.4,0,0,0,-9.74,0.86,-0.71,9.44915771484375
,0,0.34,0.65,-0.26,0.62,0.25,0.75,0.03,-9.72,1.74,-1.19,0,0,0,-9.73,0.86,-0.85,9.46465063095093
,0,0.34,0.66,-0.26,0.62,-0,0.75,0.02,-9.7,2.54,-1.73,0,0,0,-9.72,0.87,-0.92,9.48204731941223
,0,0.34,0.66,-0.25,0.62,-0.18,0.7,-0.03,-9.39,1.86,-2.47,0,0,0,-9.7,0.87,-1.06,9.49930810928345
,0,0.34,0.67,-0.25,0.61,-0.07,0.7,-0.03,-10.1,1.46,-1.4,0,0,0,-9.69,0.86,-1.19,9.51488137245178
,0,0.34,0.67,-0.25,0.61,-0.1,0.66,-0.1,-10.05,1.5,-2.05,0,0,0,-9.68,0.85,-1.25,9.53224945068359
,0,0.34,0.67,-0.25,0.61,-0.22,0.66,-0.17,-10.02,1.39,-2.31,0,0,0,-9.67,0.83,-1.37,9.54917526245117
,0,0.34,0.68,-0.24,0.6,-0.3,0.6,-0.14,-9.72,0.63,-2.18,0,0,0,-9.65,0.81,-1.48,9.56503963470459
,0,0.34,0.68,-0.24,0.6,-0.21,0.58,-0.1,-9.69,0.38,-2.1,0,0,0,-9.64,0.79,-1.58,9.58227038383484
,0,0.34,0.68,-0.24,0.6,0.06,0.54,-0.09,-10.03,0.34,-1.27,0,0,0,-9.63,0.78,-1.63,9.5994086265564
,0,0.34,0.69,-0.24,0.6,0.45,0.43,-0.03,-9.5,0.75,-1.79,0,0,0,-9.62,0.76,-1.72,9.6147301197052
,0,0.35,0.69,-0.24,0.59,0.54,0.4,-0.01,-9.53,0.91,-1.54,0,0,0,-9.6,0.75,-1.8,9.63282489776611
,0,0.35,0.69,-0.24,0.59,0.53,0.34,0.01,-9.52,1.69,-1.72,0,0,0,-9.6,0.74,-1.84,9.6495566368103
,0,0.35,0.69,-0.24,0.59,0.29,0.31,0,-9.36,1.74,-2.04,0,0,0,-9.59,0.72,-1.9,9.66518402099609
,0,0.35,0.69,-0.24,0.58,0.14,0.32,-0.03,-9.36,1.69,-2.17,0,0,0,-9.57,0.71,-1.97,9.68254208564758
,0,0.35,0.69,-0.24,0.58,-0.05,0.4,-0.08,-9.45,1.53,-2.34,0,0,0,-9.57,0.71,-2,9.69985485076904
,0,0.35,0.69,-0.24,0.58,-0.06,0.44,-0.13,-9.32,1.2,-2.48,0,0,0,-9.55,0.69,-2.08,9.71558094024658
,0,0.35,0.7,-0.24,0.57,-0.02,0.47,-0.15,-9.31,0.99,-2.33,0,0,0,-9.53,0.66,-2.17,9.73352217674255
,0,0.35,0.7,-0.24,0.57,0.15,0.55,-0.17,-9.32,1.44,-1.77,0,0,0,-9.52,0.64,-2.23,9.75106430053711
,0,0.35,0.7,-0.24,0.57,0.21,0.6,-0.17,-9.33,1.71,-1.69,0,0,0,-9.5,0.6,-2.34,9.7658965587616
,0,0.36,0.71,-0.24,0.56,0.17,0.61,-0.18,-9.66,1.22,-1.42,0,0,0,-9.47,0.56,-2.45,9.78349542617798
,0,0.36,0.71,-0.24,0.56,0.2,0.62,-0.19,-9.53,0.78,-2.13,0,0,0,-9.46,0.53,-2.51,9.80054688453674
,0,0.36,0.71,-0.24,0.55,0.25,0.65,-0.19,-9.75,0.78,-2.33,0,0,0,-9.43,0.49,-2.63,9.81629705429077
,0,0.36,0.72,-0.24,0.55,0.21,0.65,-0.21,-9.7,0.95,-2.7,0,0,0,-9.4,0.44,-2.75,9.83406734466553
,0,0.36,0.72,-0.24,0.55,0.14,0.64,-0.22,-9.8,0.74,-3.39,0,0,0,-9.38,0.41,-2.81,9.85166931152344
,0,0.36,0.72,-0.24,0.54,0.06,0.63,-0.23,-9.85,0.5,-3.54,0,0,0,-9.35,0.37,-2.92,9.86667203903198
,0,0.36,0.73,-0.24,0.54,0.07,0.61,-0.23,-9.76,0.69,-3.91,0,0,0,-9.31,0.32,-3.04,9.88405179977417
,0,0.36,0.73,-0.24,0.53,0.13,0.59,-0.21,-10.14,0.33,-3.57,0,0,0,-9.3,0.3,-3.09,9.90139150619507
,0,0.36,0.73,-0.24,0.53,0.25,0.55,-0.2,-9.86,0.05,-3.22,0,0,0,-9.26,0.25,-3.19,9.91653895378113
,0,0.36,0.73,-0.24,0.52,0.36,0.54,-0.21,-9.89,0.77,-2.87,0,0,0,-9.23,0.18,-3.29,9.93419671058655
,0,0.36,0.73,-0.25,0.52,0.55,0.62,-0.24,-10.15,1.67,-2.03,0,0,0,-9.21,0.15,-3.35,9.95169496536255
,0,0.37,0.74,-0.25,0.51,0.57,0.68,-0.27,-10.1,1.94,-1.56,0,0,0,-9.17,0.06,-3.47,9.9666702747345
,0,0.37,0.74,-0.25,0.5,0.6,0.77,-0.32,-10.02,2.16,-1.61,0,0,0,-9.11,-0.03,-3.61,9.98353290557861
,0,0.37,0.74,-0.25,0.5,0.54,0.93,-0.41,-10.31,1.7,-1.35,0,0,0,-9.08,-0.08,-3.69,10.000985622406
,0,0.37,0.75,-0.26,0.49,0.48,1.14,-0.52,-10.63,1.09,-1.2,0,0,0,-9,-0.2,-3.88,10.0166788101196
,0,0.37,0.76,-0.26,0.47,0.53,1.25,-0.57,-11.24,0.62,-1.02,0,0,0,-8.89,-0.35,-4.1,10.0347785949707
,0,0.37,0.76,-0.26,0.47,0.62,1.45,-0.65,-11.57,-0.07,-1.19,0,0,0,-8.83,-0.43,-4.23,10.0524547100067
,0,0.38,0.77,-0.26,0.45,0.87,1.61,-0.71,-12.42,-1.34,-0.58,0,0,0,-8.69,-0.62,-4.49,10.066986322403
,0,0.38,0.77,-0.27,0.43,1.04,1.68,-0.74,-13.15,-0.48,-0.4,0,0,0,-8.53,-0.85,-4.75,10.0844440460205
,0,0.38,0.78,-0.27,0.41,1.37,1.74,-0.81,-12.86,-0.09,-0.3,0,0,0,-8.44,-0.98,-4.88,10.102263212204
,0,0.39,0.78,-0.28,0.4,1.59,1.82,-0.76,-11.62,1.05,-3.07,0,0,0,-8.25,-1.25,-5.14,10.1171050071716
,0,0.39,0.79,-0.29,0.38,1.64,2,-0.75,-12.46,2.41,-5.72,0,0,0,-8.01,-1.53,-5.42,10.134673833847
,0,0.4,0.8,-0.29,0.35,1.05,2.21,-0.83,-12.23,1.35,-4.83,0,0,0,-7.88,-1.66,-5.58,10.1521105766296
,0,0.4,0.8,-0.29,0.34,0.78,2.22,-0.77,-10.95,-0.35,-7.26,0,0,0,-7.61,-1.86,-5.89,10.1679763793945
,0,0.4,0.81,-0.29,0.32,0.66,2.18,-0.74,-10.16,-0.37,-6.74,0,0,0,-7.33,-2.02,-6.18,10.1850879192352
,0,0.4,0.82,-0.28,0.3,0.21,1.99,-0.56,-9.97,0.13,-2.5,0,0,0,-7.2,-2.07,-6.31,10.2025971412659
,0,0.4,0.82,-0.28,0.3,0.23,1.43,-0.24,-8.97,-0.41,0.5,0,0,0,-6.99,-2.14,-6.53,10.2187175750732
,0,0.41,0.82,-0.28,0.29,0.57,0.58,0.12,-6.81,0.14,-0.67,0,0,0,-6.89,-2.2,-6.61,10.2353599071503
,0,0.42,0.81,-0.29,0.29,0.71,0.24,0.26,-6.34,0.31,-1.15,0,0,0,-6.88,-2.23,-6.61,10.2527289390564
,0,0.42,0.81,-0.29,0.29,0.72,-0.41,0.36,-6.31,-0.08,-0.85,0,0,0,-6.93,-2.28,-6.55,10.2680466175079
,0,0.42,0.8,-0.3,0.29,0.66,-0.71,0.4,-6.16,0.01,-1.41,0,0,0,-7.05,-2.3,-6.4,10.2847158908844
,0,0.42,0.8,-0.3,0.3,0.42,-1.26,0.46,-6.08,0.17,-1.73,0,0,0,-7.14,-2.29,-6.31,10.3030953407288
,0,0.42,0.79,-0.31,0.31,0.03,-1.73,0.59,-5.96,0.18,-2.29,0,0,0,-7.36,-2.23,-6.08,10.3175435066223
,0,0.42,0.79,-0.31,0.33,-0.09,-1.94,0.7,-6.62,0.47,-2.89,0,0,0,-7.63,-2.1,-5.78,10.3354206085205
,0,0.42,0.77,-0.32,0.35,-0.39,-2.36,0.95,-6.89,0.22,-3.07,0,0,0,-7.77,-2.01,-5.62,10.3528447151184
,0,0.42,0.77,-0.32,0.36,-0.53,-2.69,1.17,-8.24,-0.27,-3.26,0,0,0,-8.09,-1.78,-5.23,10.368510723114
,0,0.42,0.75,-0.32,0.39,-0.6,-2.83,1.24,-9.31,-0.74,-3.69,0,0,0,-8.41,-1.52,-4.79,10.3854367733002
,0,0.42,0.74,-0.32,0.42,-0.58,-3.11,1.35,-9.72,-0.9,-4.03,0,0,0,-8.57,-1.38,-4.54,10.4027705192566
,0,0.42,0.73,-0.33,0.44,-0.46,-3.29,1.37,-9.88,-1.43,-4.47,0,0,0,-8.88,-1.11,-4,10.418484210968
,0,0.41,0.71,-0.33,0.46,-0.28,-3.44,1.34,-10.51,-0.75,-4.98,0,0,0,-9.15,-0.85,-3.42,10.4360089302063
,0,0.41,0.69,-0.34,0.49,-0.21,-3.5,1.36,-10.5,-0.46,-5.23,0,0,0,-9.27,-0.72,-3.11,10.4529843330383
,0,0.41,0.68,-0.34,0.51,-0.2,-3.51,1.4,-10.68,0.49,-5.43,0,0,0,-9.47,-0.46,-2.47,10.4685385227203
,0,0.4,0.66,-0.34,0.54,-0.43,-3.46,1.42,-10.54,0.48,-5.97,0,0,0,-9.63,-0.18,-1.83,10.486168384552
,0,0.4,0.63,-0.35,0.56,-0.55,-3.4,1.42,-10.38,0.23,-6.12,0,0,0,-9.68,-0.04,-1.51,10.5034780502319
,0,0.39,0.62,-0.35,0.58,-0.82,-3.23,1.37,-10.8,0.13,-5.58,0,0,0,-9.76,0.23,-0.89,10.5182616710663
,0,0.39,0.6,-0.34,0.6,-0.96,-3.04,1.37,-10.98,-0.43,-5.58,0,0,0,-9.78,0.5,-0.3,10.5354578495026
,0,0.38,0.59,-0.34,0.63,-0.92,-2.93,1.35,-10.7,-0.81,-5.75,0,0,0,-9.78,0.63,-0.02,10.552855014801
,0,0.38,0.58,-0.34,0.64,-0.75,-2.64,1.26,-10.3,-0.53,-6.06,0,0,0,-9.75,0.87,0.5,10.5683405399323
,0,0.37,0.56,-0.34,0.66,-0.71,-2.19,1.13,-8.61,-0.67,-6.94,0,0,0,-9.69,1.08,0.95,10.5860710144043
,0,0.37,0.55,-0.33,0.67,-0.71,-1.9,1.04,-7.87,-0.94,-7.07,0,0,0,-9.66,1.17,1.14,10.6036968231201
,0,0.36,0.54,-0.33,0.68,-0.66,-1.15,0.73,-6.83,-0.9,-7.86,0,0,0,-9.61,1.3,1.4,10.6188275814056
,0,0.36,0.54,-0.33,0.69,-0.67,-0.3,0.36,-6.62,-1.01,-7.88,0,0,0,-9.58,1.37,1.52,10.636372089386
,0,0.36,0.54,-0.32,0.69,-0.65,0.11,0.19,-7.06,-0.8,-7.59,0,0,0,-9.58,1.38,1.52,10.653754234314
,0,0.36,0.55,-0.32,0.69,-0.61,0.97,-0.15,-8.28,1.1,-7.01,0,0,0,-9.61,1.35,1.39,10.6685628890991
,0,0.35,0.56,-0.31,0.68,-0.82,1.38,-0.58,-15.65,-1.89,4.95,0,0,0,-9.65,1.23,1.16,10.6860699653625
,0,0.35,0.57,-0.31,0.67,-0.39,1.14,-0.28,-14.1,-0.24,2.25,0,0,0,-9.67,1.2,1.05,10.7034783363342
,0,0.35,0.58,-0.31,0.67,-0.36,1.08,-0.24,-10.89,-0.48,-1.64,0,0,0,-9.69,1.15,0.86,10.7189555168152
,0,0.35,0.59,-0.3,0.66,-0.45,1.21,-0.4,-9.85,-0.06,-1.18,0,0,0,-9.72,1.08,0.65,10.736083984375
,0,0.35,0.6,-0.3,0.66,-0.33,1.37,-0.44,-9.95,1.01,-1.37,0,0,0,-9.73,1.03,0.53,10.7539415359497
,0,0.35,0.6,-0.29,0.65,-0.84,1.43,-0.39,-10.21,2.84,-2.29,0,0,0,-9.75,0.95,0.27,10.7686011791229
,0,0.34,0.62,-0.28,0.65,-1.45,1.35,-0.29,-9.36,1.19,-3.27,0,0,0,-9.76,0.89,0.03,10.786557674408
,0,0.33,0.63,-0.27,0.65,-1.72,1.26,-0.21,-9.98,-0.49,-1.72,0,0,0,-9.76,0.87,-0.06,10.8032774925232
,0,0.33,0.64,-0.27,0.65,-1.09,1,-0.04,-10.93,-2.09,-0.65,0,0,0,-9.76,0.86,-0.24,10.8191537857056
,0,0.33,0.64,-0.26,0.64,0.33,0.66,0.09,-10.26,-0.96,-1.09,0,0,0,-9.76,0.87,-0.38,10.8363704681396
,0,0.34,0.64,-0.27,0.63,0.81,0.62,0.08,-9.83,-0.21,-1.54,0,0,0,-9.75,0.87,-0.44,10.8533794879913
,0,0.34,0.64,-0.27,0.63,0.92,0.72,-0.01,-9.24,3.07,-2.29,0,0,0,-9.75,0.87,-0.59,10.8686079978943
,0,0.35,0.65,-0.27,0.62,0.49,0.99,-0.03,-9.9,3.15,-1.3,0,0,0,-9.73,0.85,-0.77,10.8862433433533
,0,0.35,0.65,-0.27,0.62,0.26,1.02,-0.02,-9.69,2.17,-1.74,0,0,0,-9.73,0.85,-0.87,10.9032635688782
,0,0.35,0.65,-0.27,0.61,0.01,0.92,-0.05,-9.76,1.19,-1.7,0,0,0,-9.71,0.84,-1.05,10.91850066185
,0,0.35,0.66,-0.26,0.61,0.19,0.79,-0.08,-10.22,1.61,-1.63,0,0,0,-9.69,0.82,-1.21,10.9360241889954
,0,0.36,0.66,-0.26,0.6,0.27,0.75,-0.1,-10.09,1.45,-1.75,0,0,0,-9.68,0.81,-1.28,10.9532670974731
,0,0.36,0.67,-0.26,0.6,0.07,0.66,-0.17,-9.89,2.15,-1.59,0,0,0,-9.67,0.78,-1.41,10.9686841964722
,0,0.35,0.67,-0.26,0.6,-0.22,0.6,-0.15,-9.93,1.52,-1.75,0,0,0,-9.65,0.75,-1.52,10.9862499237061
,0,0.35,0.68,-0.25,0.59,-0.32,0.54,-0.13,-9.96,0.79,-1.8,0,0,0,-9.64,0.75,-1.57,11.0035178661346
,0,0.35,0.68,-0.25,0.59,-0.18,0.51,-0.08,-9.66,0.82,-2.46,0,0,0,-9.63,0.74,-1.67,11.0187654495239
,0,0.35,0.68,-0.25,0.59,0.04,0.5,-0.07,-9.45,0.78,-2.57,0,0,0,-9.61,0.72,-1.76,11.0361542701721
,0,0.36,0.68,-0.25,0.59,0.14,0.49,-0.07,-9.39,0.95,-2.69,0,0,0,-9.61,0.71,-1.81,11.0533940792084
,0,0.36,0.69,-0.25,0.58,0.27,0.45,-0.06,-9.38,1.11,-2.09,0,0,0,-9.59,0.69,-1.89,11.0689144134521
,0,0.36,0.69,-0.25,0.58,0.25,0.43,-0.06,-9.3,1.49,-2.35,0,0,0,-9.57,0.67,-1.98,11.087562084198
,0,0.36,0.69,-0.25,0.58,0.16,0.41,-0.06,-9.38,1.55,-2.49,0,0,0,-9.56,0.66,-2.06,11.1045813560486
,0,0.36,0.69,-0.25,0.57,-0.05,0.38,-0.07,-9.64,1.3,-2.04,0,0,0,-9.55,0.65,-2.09,11.1198480129242
,0,0.36,0.69,-0.25,0.57,-0.15,0.32,-0.06,-9.93,0.75,-2.02,0,0,0,-9.54,0.65,-2.15,11.1389880180359
,0,0.36,0.7,-0.25,0.57,-0.1,0.3,-0.04,-9.85,0.98,-1.87,0,0,0,-9.53,0.64,-2.2,11.1559822559357
,0,0.36,0.7,-0.25,0.57,-0.04,0.27,-0.03,-9.74,1.09,-2,0,0,0,-9.52,0.64,-2.23,11.171147108078
,0,0.36,0.7,-0.25,0.57,-0.03,0.26,-0.01,-9.66,0.99,-2.34,0,0,0,-9.51,0.64,-2.27,11.1877553462982
,0,0.36,0.7,-0.25,0.57,-0.01,0.26,-0.01,-9.62,0.88,-2.13,0,0,0,-9.5,0.65,-2.32,11.204437494278
,0,0.36,0.7,-0.24,0.57,0.07,0.3,-0.01,-9.47,0.87,-2.24,0,0,0,-9.49,0.65,-2.35,11.2204742431641
,0,0.36,0.7,-0.24,0.56,0.15,0.34,-0.03,-9.36,0.96,-2.11,0,0,0,-9.48,0.64,-2.41,11.2388308048248
,0,0.36,0.7,-0.24,0.56,0.17,0.37,-0.04,-9.33,1.24,-2.38,0,0,0,-9.46,0.62,-2.48,11.2550644874573
,0,0.36,0.7,-0.24,0.56,0.2,0.44,-0.06,-9.48,1.4,-2.05,0,0,0,-9.45,0.61,-2.52,11.2701001167297
,0,0.37,0.71,-0.24,0.55,0.15,0.51,-0.1,-9.62,1.37,-2.1,0,0,0,-9.43,0.58,-2.61,11.2883765697479
,0,0.37,0.71,-0.24,0.55,0.12,0.53,-0.12,-9.5,1.1,-2.56,0,0,0,-9.4,0.55,-2.71,11.3047626018524
,0,0.37,0.71,-0.24,0.55,0.15,0.59,-0.17,-9.64,0.75,-2.46,0,0,0,-9.39,0.53,-2.77,11.3193249702454
,0,0.37,0.71,-0.24,0.54,0.18,0.64,-0.2,-9.66,0.66,-2.37,0,0,0,-9.35,0.49,-2.88,11.3385462760925
,0,0.37,0.72,-0.24,0.54,0.22,0.66,-0.22,-9.8,0.77,-2.88,0,0,0,-9.32,0.43,-3.01,11.355278968811
,0,0.37,0.72,-0.25,0.53,0.33,0.7,-0.23,-10.1,0.58,-2.04,0,0,0,-9.3,0.4,-3.07,11.3701322078705
,0,0.37,0.72,-0.25,0.52,0.53,0.76,-0.27,-10.07,1.51,-1.84,0,0,0,-9.25,0.33,-3.21,11.3891372680664
,0,0.38,0.73,-0.25,0.52,0.64,0.82,-0.32,-10.26,1.84,-2.2,0,0,0,-9.2,0.23,-3.36,11.40478515625
,0,0.38,0.73,-0.25,0.51,0.66,0.87,-0.37,-10.58,1.38,-1.64,0,0,0,-9.18,0.17,-3.44,11.4199206829071
,0,0.38,0.73,-0.26,0.5,0.79,1,-0.45,-11.03,1.54,-1.87,0,0,0,-9.11,0.04,-3.61,11.4386870861053
,0,0.38,0.74,-0.26,0.49,0.79,1.06,-0.47,-11.08,1.56,-1.89,0,0,0,-9.03,-0.09,-3.8,11.4549012184143
,0,0.39,0.74,-0.26,0.48,0.76,1.24,-0.54,-11.77,0.8,-0.86,0,0,0,-8.98,-0.16,-3.91,11.4702377319336
,0,0.39,0.75,-0.27,0.47,0.84,1.39,-0.61,-11.71,0.32,-0.99,0,0,0,-8.88,-0.33,-4.14,11.4895348548889
,0,0.39,0.76,-0.27,0.45,0.91,1.51,-0.64,-12.56,-0.54,-0.68,0,0,0,-8.74,-0.52,-4.4,11.5052883625031
,0,0.39,0.76,-0.27,0.44,1.16,1.69,-0.7,-12.89,-0.7,-0.6,0,0,0,-8.66,-0.63,-4.54,11.5207223892212
,0,0.4,0.77,-0.28,0.42,1.41,1.78,-0.76,-13.56,-0.27,-0.26,0,0,0,-8.49,-0.88,-4.81,11.5397326946259
,0,0.4,0.77,-0.29,0.4,1.46,1.8,-0.78,-11.65,1.01,-2.2,0,0,0,-8.31,-1.15,-5.07,11.5555508136749
,0,0.41,0.77,-0.29,0.39,1.59,1.9,-0.78,-11.57,1.85,-4,0,0,0,-8.2,-1.29,-5.21,11.5705485343933
,0,0.41,0.78,-0.3,0.36,1.43,2.12,-0.83,-12.26,1.7,-5.71,0,0,0,-7.96,-1.57,-5.49,11.5902268886566
,0,0.41,0.79,-0.3,0.34,1.06,2.13,-0.86,-11.29,1.21,-4.73,0,0,0,-7.71,-1.81,-5.78,11.6061415672302
,0,0.42,0.79,-0.3,0.33,0.86,2,-0.84,-10.48,0.43,-6.28,0,0,0,-7.58,-1.92,-5.91,11.6211891174316
,0,0.42,0.8,-0.3,0.31,0.33,1.86,-0.74,-9.16,-0.39,-6.63,0,0,0,-7.33,-2.09,-6.16,11.640851020813
,0,0.42,0.81,-0.29,0.3,0.04,1.75,-0.64,-8.76,-0.41,-4.33,0,0,0,-7.1,-2.18,-6.39,11.6563808917999
,0,0.42,0.81,-0.29,0.29,-0.12,1.33,-0.41,-7.88,-0.46,-0.61,0,0,0,-7.01,-2.2,-6.49,11.671062707901
,0,0.42,0.81,-0.28,0.29,-0.19,0.57,-0.16,-6.44,-0.13,-0.45,0,0,0,-6.9,-2.2,-6.6,11.6912791728973
,0,0.42,0.81,-0.28,0.29,-0.03,0.24,-0.03,-5.98,0.83,-1.58,0,0,0,-6.89,-2.19,-6.61,11.7062613964081
,0,0.42,0.81,-0.28,0.29,0.03,-0.38,0.19,-5.74,0.54,-1.47,0,0,0,-6.92,-2.18,-6.59,11.7215054035187
,0,0.42,0.81,-0.29,0.29,0.09,-0.93,0.27,-5.73,-0.35,-1.63,0,0,0,-7.03,-2.16,-6.48,11.7411315441132
,0,0.42,0.8,-0.29,0.3,0.08,-1.2,0.28,-5.67,-0.55,-1.87,0,0,0,-7.2,-2.13,-6.29,11.7565114498138
,0,0.42,0.8,-0.3,0.31,-0,-1.69,0.32,-5.45,-0.2,-2.82,0,0,0,-7.31,-2.11,-6.17,11.7719871997833
,0,0.42,0.79,-0.3,0.33,-0.15,-2.11,0.46,-5.93,0.1,-2.93,0,0,0,-7.56,-2.03,-5.89,11.7919011116028
,0,0.41,0.78,-0.31,0.35,-0.25,-2.31,0.56,-7.23,0.14,-2.96,0,0,0,-7.85,-1.91,-5.54,11.8063898086548
,0,0.41,0.78,-0.31,0.36,-0.44,-2.64,0.78,-7.6,0,-3.04,0,0,0,-8.01,-1.83,-5.34,11.8217437267303
,0,0.41,0.76,-0.32,0.39,-0.57,-2.93,0.96,-8.71,-0.24,-3.53,0,0,0,-8.32,-1.63,-4.91,11.8418791294098
,0,0.4,0.75,-0.32,0.42,-0.59,-3.06,1.04,-9.45,-0.31,-3.88,0,0,0,-8.63,-1.4,-4.42,11.8574590682983
,0,0.4,0.74,-0.32,0.43,-0.64,-3.22,1.15,-9.6,-0.26,-3.88,0,0,0,-8.78,-1.28,-4.16,11.8721280097961
,0,0.4,0.73,-0.32,0.46,-0.8,-3.4,1.17,-10.3,-1.02,-4.09,0,0,0,-9.06,-1.02,-3.59,11.8924355506897
,0,0.39,0.71,-0.33,0.49,-0.77,-3.57,1.15,-10.88,-0.92,-4.49,0,0,0,-9.31,-0.76,-2.98,11.9075040817261
,0,0.39,0.7,-0.33,0.51,-0.67,-3.64,1.16,-10.77,-0.64,-4.63,0,0,0,-9.41,-0.64,-2.65,11.9232785701752
,0,0.38,0.68,-0.33,0.54,-0.58,-3.71,1.23,-10.98,-0.15,-4.74,0,0,0,-9.59,-0.39,-1.98,11.9435338973999
,0,0.37,0.65,-0.33,0.57,-0.79,-3.72,1.29,-11.2,0.58,-5.37,0,0,0,-9.72,-0.13,-1.29,11.9581308364868
,0,0.36,0.63,-0.33,0.6,-0.93,-3.65,1.31,-11.24,0.74,-5.54,0,0,0,-9.76,0,-0.94,11.9746582508087
,0,0.35,0.61,-0.33,0.63,-1.23,-3.44,1.31,-11.26,0.2,-6.25,0,0,0,-9.79,0.26,-0.27,11.9943838119507
,0,0.35,0.6,-0.33,0.64,-1.3,-3.12,1.28,-11.03,-0.76,-7.47,0,0,0,-9.78,0.5,0.33,12.0116639137268
,0,0.34,0.58,-0.32,0.66,-1.05,-2.58,1.12,-9.66,-1.69,-9.24,0,0,0,-9.74,0.71,0.86,12.0287523269653
,0,0.33,0.57,-0.32,0.68,-0.92,-2.24,1.02,-7.66,-1.82,-9.12,0,0,0,-9.68,0.87,1.26,12.0459704399109
,0,0.33,0.57,-0.31,0.69,-0.56,-1.39,0.7,-7.09,-1.33,-9.39,0,0,0,-9.66,0.93,1.39,12.0635545253754
,0,0.33,0.56,-0.31,0.69,-0.11,-0.44,0.41,-5.78,-0.82,-9.9,0,0,0,-9.63,1.01,1.52,12.0807104110718
,0,0.33,0.56,-0.31,0.69,0.03,0.6,0.03,-6.39,0.13,-10.38,0,0,0,-9.64,1.04,1.46,12.0990698337555
,0,0.33,0.57,-0.31,0.68,-0.02,1.17,-0.17,-8.16,1.92,-7.79,0,0,0,-9.68,0.97,1.2,12.1156973838806
,0,0.33,0.58,-0.31,0.68,0.13,1.27,-0.31,-15.38,-1.04,1.62,0,0,0,-9.69,0.94,1.08,12.1316351890564
,0,0.34,0.58,-0.31,0.67,0.54,0.97,0.01,-12.58,1.02,0.44,0,0,0,-9.71,0.96,0.88,12.1517298221588
,0,0.34,0.59,-0.31,0.66,0.37,1.02,-0.17,-9.7,-1.2,-1.1,0,0,0,-9.73,0.92,0.69,12.1669361591339
,0,0.34,0.59,-0.3,0.66,-0.09,1.18,-0.41,-9.78,-0.32,-0.51,0,0,0,-9.74,0.88,0.58,12.1828339099884
,0,0.34,0.6,-0.3,0.65,-0.26,1.37,-0.34,-10.14,1.77,-2.56,0,0,0,-9.76,0.81,0.32,12.2031960487366
,0,0.34,0.62,-0.29,0.65,-0.81,1.23,-0.24,-9.66,1.29,-2.93,0,0,0,-9.77,0.75,0.09,12.2180433273315
,0,0.34,0.63,-0.29,0.64,-0.87,1.1,-0.15,-9.31,0.28,-3.09,0,0,0,-9.77,0.74,0,12.2336430549622
,0,0.34,0.63,-0.28,0.64,-0.83,0.87,-0.09,-10.71,-1.12,-1.9,0,0,0,-9.77,0.72,-0.16,12.2541408538818
,0,0.34,0.63,-0.28,0.64,-0.05,0.62,0.03,-10.86,-0.08,-0.36,0,0,0,-9.77,0.72,-0.29,12.2692651748657
,0,0.34,0.64,-0.28,0.63,0.27,0.52,0.1,-10.22,-0.13,-0.61,0,0,0,-9.77,0.74,-0.39,12.2851583957672
,0,0.35,0.64,-0.28,0.63,0.6,0.54,0.08,-8.66,1.27,-1.3,0,0,0,-9.76,0.74,-0.44,12.3043410778046
,0,0.35,0.64,-0.28,0.63,0.55,0.65,0.04,-9.73,2.5,0.9,0,0,0,-9.76,0.74,-0.57,12.3196539878845
,0,0.35,0.64,-0.28,0.62,0.5,0.67,0.06,-9.82,2.61,-0.78,0,0,0,-9.75,0.75,-0.7,12.3359618186951
,0,0.36,0.65,-0.28,0.62,0.1,0.68,0.02,-9.88,2.88,-1.49,0,0,0,-9.74,0.75,-0.77,12.3547921180725
,0,0.36,0.65,-0.28,0.61,-0.21,0.68,0.01,-9.77,1.63,-2.17,0,0,0,-9.73,0.75,-0.9,12.3697280883789
,0,0.36,0.65,-0.27,0.61,-0.17,0.66,-0.01,-9.82,1.37,-1.7,0,0,0,-9.72,0.75,-1.01,12.3874280452728
,0,0.36,0.66,-0.27,0.61,-0.16,0.61,-0.08,-10.15,1.69,-1.32,0,0,0,-9.71,0.74,-1.13,12.4047894477844
,0,0.36,0.66,-0.27,0.61,-0.24,0.63,-0.13,-9.88,1.93,-2.73,0,0,0,-9.7,0.73,-1.19,12.4199087619781
,0,0.35,0.66,-0.27,0.6,-0.43,0.6,-0.15,-9.77,1.91,-2.51,0,0,0,-9.69,0.71,-1.29,12.4362871646881
,0,0.35,0.67,-0.26,0.6,-0.65,0.58,-0.13,-9.88,0.98,-1.3,0,0,0,-9.68,0.71,-1.39,12.4551837444305
,0,0.35,0.67,-0.26,0.6,-0.47,0.55,-0.07,-9.94,0.52,-1.47,0,0,0,-9.67,0.71,-1.44,12.4697713851929
,0,0.35,0.68,-0.26,0.6,-0.32,0.51,-0.06,-9.84,0.32,-1.44,0,0,0,-9.65,0.7,-1.53,12.4862928390503
,0,0.35,0.68,-0.25,0.59,0.05,0.48,-0.06,-9.62,0.67,-1.06,0,0,0,-9.64,0.69,-1.62,12.5049431324005
,0,0.35,0.68,-0.25,0.59,0.11,0.41,-0.04,-9.17,1.56,-1.76,0,0,0,-9.64,0.68,-1.66,12.5200619697571
,0,0.35,0.68,-0.25,0.59,0.03,0.41,-0.05,-9.17,1.16,-2.47,0,0,0,-9.62,0.67,-1.73,12.5369362831116
,0,0.35,0.69,-0.25,0.59,-0.18,0.45,-0.06,-9.28,1.62,-1.91,0,0,0,-9.61,0.67,-1.81,12.5548751354218
,0,0.35,0.69,-0.25,0.59,-0.39,0.45,-0.11,-9.31,1.33,-1.85,0,0,0,-9.6,0.67,-1.85,12.5703692436218
,0,0.35,0.69,-0.25,0.58,-0.31,0.5,-0.11,-9.48,1.11,-2.16,0,0,0,-9.58,0.66,-1.95,12.5861802101135
,0,0.35,0.7,-0.24,0.58,-0.34,0.54,-0.15,-9.53,1.18,-1.7,0,0,0,-9.56,0.64,-2.04,12.6052696704865
,0,0.35,0.7,-0.24,0.58,-0.21,0.57,-0.16,-9.63,1.31,-1.63,0,0,0,-9.55,0.63,-2.09,12.6203083992004
,0,0.35,0.7,-0.24,0.57,-0.16,0.55,-0.16,-9.6,0.74,-1.83,0,0,0,-9.53,0.61,-2.2,12.6366193294525
,0,0.35,0.71,-0.24,0.57,-0.03,0.58,-0.16,-9.7,0.28,-1.9,0,0,0,-9.51,0.58,-2.3,12.655109167099
,0,0.35,0.71,-0.24,0.57,0.06,0.55,-0.15,-9.34,-0.12,-2.27,0,0,0,-9.5,0.56,-2.35,12.6704490184784
,0,0.35,0.71,-0.24,0.56,0.19,0.57,-0.11,-9.67,0.41,-2.47,0,0,0,-9.47,0.53,-2.46,12.686173915863
,0,0.35,0.71,-0.24,0.56,0.24,0.58,-0.11,-9.91,0.7,-2.26,0,0,0,-9.44,0.5,-2.57,12.7053642272949
,0,0.35,0.71,-0.24,0.56,0.29,0.57,-0.12,-10.03,1.21,-2.62,0,0,0,-9.43,0.48,-2.62,12.720219373703
,0,0.35,0.72,-0.24,0.55,0.24,0.57,-0.14,-9.76,1.23,-2.63,0,0,0,-9.4,0.44,-2.73,12.7350518703461
,0,0.35,0.72,-0.24,0.55,0.23,0.63,-0.15,-9.67,1.33,-2.77,0,0,0,-9.38,0.42,-2.79,12.7549605369568
,0,0.35,0.72,-0.24,0.54,0.18,0.65,-0.19,-9.57,0.54,-2.96,0,0,0,-9.35,0.38,-2.91,12.7698225975037
,0,0.36,0.73,-0.24,0.54,0.24,0.66,-0.21,-9.62,0.78,-2.8,0,0,0,-9.33,0.35,-2.97,12.7848176956177
,0,0.36,0.73,-0.24,0.53,0.35,0.69,-0.23,-10.34,0.59,-2.29,0,0,0,-9.29,0.29,-3.1,12.8051660060883
,0,0.36,0.73,-0.24,0.53,0.55,0.74,-0.28,-10.77,1.49,-1.62,0,0,0,-9.25,0.22,-3.23,12.819846868515
,0,0.36,0.74,-0.25,0.52,0.68,0.78,-0.31,-10.57,2.09,-2.47,0,0,0,-9.2,0.12,-3.37,12.8354141712189
,0,0.37,0.74,-0.25,0.51,0.68,0.88,-0.36,-10.6,1.48,-2.11,0,0,0,-9.17,0.06,-3.45,12.8549995422363
,0,0.37,0.74,-0.25,0.5,0.78,1.05,-0.44,-10.77,1.94,-1.53,0,0,0,-9.1,-0.06,-3.63,12.8695552349091
,0,0.37,0.75,-0.25,0.49,0.7,1.13,-0.46,-10.52,1.74,-2.05,0,0,0,-9.01,-0.19,-3.84,12.8851354122162
,0,0.37,0.75,-0.26,0.48,0.58,1.36,-0.54,-11.37,0.41,-1.12,0,0,0,-8.96,-0.26,-3.96,12.9052929878235
,0,0.37,0.76,-0.26,0.47,0.68,1.51,-0.59,-11.32,0.28,-1.79,0,0,0,-8.84,-0.41,-4.21,12.9199669361115
,0,0.38,0.77,-0.26,0.45,0.7,1.59,-0.63,-11.88,0.36,-1.33,0,0,0,-8.7,-0.58,-4.47,12.9359078407288
,0,0.38,0.77,-0.26,0.43,0.83,1.69,-0.69,-12.65,-0.09,-0.98,0,0,0,-8.54,-0.77,-4.75,12.9552049636841
,0,0.38,0.78,-0.27,0.42,1.1,1.75,-0.64,-13.83,-0.89,-0.54,0,0,0,-8.45,-0.88,-4.88,12.9701309204102
,0,0.39,0.78,-0.27,0.4,1.3,1.78,-0.61,-13.89,-1.15,-0.06,0,0,0,-8.27,-1.11,-5.15,12.985454082489
,0,0.39,0.79,-0.28,0.38,1.67,1.88,-0.6,-12.45,0.32,-1.85,0,0,0,-8.06,-1.39,-5.4,13.0055141448975
,0,0.4,0.79,-0.29,0.37,1.87,2.08,-0.66,-11.93,1.32,-6.55,0,0,0,-7.94,-1.54,-5.54,13.0199608802795
,0,0.4,0.8,-0.29,0.35,1.48,2.12,-0.74,-12.09,0.43,-5.22,0,0,0,-7.68,-1.8,-5.82,13.035950422287
,0,0.41,0.8,-0.29,0.32,1.3,2.07,-0.72,-10.6,1.05,-5.77,0,0,0,-7.42,-2.04,-6.07,13.0563418865204
,0,0.41,0.81,-0.29,0.31,0.86,1.83,-0.59,-8.69,0,-6.89,0,0,0,-7.3,-2.13,-6.18,13.0708675384521
,0,0.42,0.81,-0.3,0.3,0.62,1.72,-0.48,-8.4,-0.22,-6.21,0,0,0,-7.08,-2.26,-6.39,13.0856549739838
,0,0.42,0.81,-0.29,0.28,0.39,1.32,-0.29,-7.56,0.47,-2.12,0,0,0,-6.93,-2.33,-6.53,13.1059353351593
,0,0.42,0.81,-0.29,0.28,0.13,0.61,-0.02,-6.31,0.85,-1.3,0,0,0,-6.89,-2.34,-6.57,13.1208090782166
,0,0.42,0.81,-0.29,0.28,0.05,0.29,0.1,-5.93,0.79,-1.73,0,0,0,-6.87,-2.33,-6.59,13.1357090473175
,0,0.42,0.81,-0.29,0.28,-0.07,-0.3,0.27,-5.65,0.54,-0.26,0,0,0,-6.94,-2.27,-6.53,13.1556775569916
,0,0.42,0.81,-0.29,0.29,-0.01,-0.91,0.37,-5.32,-0.01,-1.94,0,0,0,-7.01,-2.25,-6.47,13.1703934669495
,0,0.42,0.8,-0.3,0.3,-0.08,-1.19,0.4,-5.44,0.04,-1.83,0,0,0,-7.09,-2.21,-6.39,13.185732126236
,0,0.42,0.79,-0.3,0.32,-0.16,-1.68,0.48,-5.25,-0.19,-2.38,0,0,0,-7.43,-2.08,-6.05,13.2057301998138
,0,0.42,0.79,-0.3,0.33,-0.32,-2.09,0.65,-5.6,0.21,-2.73,0,0,0,-7.56,-2.01,-5.9,13.2207760810852
,0,0.42,0.78,-0.31,0.35,-0.45,-2.29,0.75,-6.06,0.33,-2.83,0,0,0,-7.85,-1.84,-5.56,13.2366001605988
,0,0.42,0.77,-0.31,0.37,-0.57,-2.66,0.96,-7.47,-0.3,-2.81,0,0,0,-8.17,-1.62,-5.16,13.2562139034271
,0,0.42,0.76,-0.31,0.39,-0.54,-2.95,1.11,-8.22,-0.65,-3.59,0,0,0,-8.33,-1.51,-4.93,13.2708060741425
,0,0.41,0.75,-0.32,0.42,-0.49,-3.08,1.17,-9.01,-0.64,-4.23,0,0,0,-8.65,-1.27,-4.43,13.2862145900726
,0,0.41,0.73,-0.32,0.44,-0.42,-3.24,1.28,-9.23,-0.85,-4.15,0,0,0,-8.94,-1.02,-3.88,13.3062944412231
,0,0.41,0.72,-0.32,0.46,-0.44,-3.38,1.27,-10.47,-0.56,-4.22,0,0,0,-9.07,-0.89,-3.59,13.3208730220795
,0,0.4,0.7,-0.33,0.49,-0.44,-3.48,1.28,-10.84,-0.4,-4.56,0,0,0,-9.32,-0.64,-2.97,13.3368055820465
,0,0.4,0.68,-0.33,0.52,-0.46,-3.52,1.27,-10.92,-0.16,-4.94,0,0,0,-9.51,-0.38,-2.34,13.3564722537994
,0,0.4,0.67,-0.34,0.53,-0.58,-3.51,1.28,-11.03,0.2,-4.88,0,0,0,-9.59,-0.25,-2.02,13.3710355758667
,0,0.39,0.65,-0.34,0.56,-0.68,-3.49,1.28,-10.97,0.34,-5.35,0,0,0,-9.7,0,-1.37,13.3870108127594
,0,0.38,0.63,-0.34,0.59,-0.98,-3.36,1.25,-11.11,0.53,-5.81,0,0,0,-9.77,0.26,-0.74,13.4069471359253
,0,0.37,0.62,-0.33,0.6,-1.32,-3.1,1.19,-11,0.23,-6.13,0,0,0,-9.78,0.38,-0.45,13.4212136268616
,0,0.36,0.6,-0.33,0.63,-1.43,-2.94,1.16,-11.08,0,-6.38,0,0,0,-9.78,0.6,0.1,13.436573266983
,0,0.35,0.59,-0.32,0.65,-1.43,-2.59,1.04,-11.33,-0.3,-6.71,0,0,0,-9.75,0.78,0.58,13.4562497138977
,0,0.35,0.58,-0.32,0.66,-1.23,-2.06,0.83,-9.57,-0.8,-8.18,0,0,0,-9.73,0.85,0.79,13.4710233211517
,0,0.34,0.57,-0.32,0.68,-1.13,-1.7,0.7,-8.9,-0.68,-8.57,0,0,0,-9.69,0.95,1.09,13.4871246814728
,0,0.33,0.57,-0.31,0.68,-0.88,-0.91,0.48,-6.9,-0.6,-9.16,0,0,0,-9.67,1.01,1.24,13.5065042972565
,0,0.33,0.57,-0.31,0.68,-0.61,-0,0.22,-6.32,-1.11,-9.08,0,0,0,-9.67,1.02,1.24,13.5207650661469
,0,0.33,0.58,-0.3,0.68,-0.48,0.43,0.1,-7.33,-0.09,-9.72,0,0,0,-9.68,1.02,1.13,13.537109375
,0,0.33,0.59,-0.3,0.68,-0.57,1.24,-0.22,-8.16,0.48,-7.06,0,0,0,-9.72,0.94,0.89,13.5564999580383
,0,0.33,0.59,-0.3,0.67,-0.48,1.23,-0.36,-14.66,-3.64,5.38,0,0,0,-9.73,0.9,0.78,13.5710213184357
,0,0.33,0.6,-0.29,0.67,0.11,1.07,-0.13,-12.29,-1.16,0.98,0,0,0,-9.74,0.88,0.57,13.5874543190002
,0,0.33,0.61,-0.29,0.66,0,1.06,-0.21,-11.02,0.18,-2.56,0,0,0,-9.76,0.84,0.37,13.6065604686737
,0,0.34,0.61,-0.29,0.65,0.03,1.19,-0.3,-9.56,0.33,-1.94,0,0,0,-9.76,0.81,0.26,13.6213760375977
,0,0.34,0.62,-0.29,0.65,-0.1,1.33,-0.35,-10.01,1.57,-1.53,0,0,0,-9.77,0.76,0.01,13.6380560398102
,0,0.33,0.63,-0.28,0.64,-0.68,1.34,-0.27,-9.74,3.46,-2.98,0,0,0,-9.77,0.71,-0.21,13.6565561294556
,0,0.33,0.64,-0.27,0.64,-1.32,1.16,-0.19,-9.6,1.66,-1.18,0,0,0,-9.77,0.69,-0.31,13.671496629715
,0,0.32,0.65,-0.26,0.64,-1.32,1.08,-0.12,-10.53,-0.36,-1.8,0,0,0,-9.77,0.68,-0.49,13.6869451999664
,0,0.32,0.65,-0.26,0.63,-0.51,0.78,-0.08,-10.42,-0.75,-0.25,0,0,0,-9.76,0.67,-0.62,13.707093000412
,0,0.33,0.66,-0.26,0.63,0.16,0.64,-0.02,-10.11,0.05,-1.6,0,0,0,-9.75,0.67,-0.68,13.721771478653
,0,0.33,0.66,-0.26,0.63,0.18,0.67,-0.02,-8.7,1.82,-1.94,0,0,0,-9.74,0.66,-0.82,13.73797082901
,0,0.33,0.66,-0.26,0.62,0.09,0.87,0.01,-9.4,1.62,-1.7,0,0,0,-9.73,0.66,-0.99,13.7568888664246
,0,0.33,0.67,-0.25,0.62,-0.15,0.9,-0.02,-9.87,1.8,-1.75,0,0,0,-9.72,0.66,-1.08,13.7710793018341
,0,0.33,0.67,-0.25,0.61,-0.31,0.89,-0.05,-9.88,1.68,-2.12,0,0,0,-9.7,0.66,-1.24,13.787929058075
,0,0.33,0.68,-0.25,0.61,-0.19,0.89,-0.04,-9.98,2.53,-2.12,0,0,0,-9.68,0.66,-1.4,13.8070542812347
,0,0.33,0.68,-0.25,0.6,-0.06,0.79,-0.05,-9.78,1.75,-2.14,0,0,0,-9.67,0.65,-1.47,13.8218121528625
,0,0.33,0.69,-0.24,0.6,-0.13,0.75,-0.09,-9.92,1.27,-1.73,0,0,0,-9.65,0.64,-1.61,13.8377969264984
,0,0.33,0.69,-0.24,0.6,-0.41,0.72,-0.13,-10.21,2.09,-1.9,0,0,0,-9.63,0.63,-1.73,13.8568665981293
,0,0.33,0.7,-0.23,0.59,-0.6,0.64,-0.1,-9.96,0.04,-2.11,0,0,0,-9.61,0.63,-1.79,13.8713045120239
,0,0.33,0.7,-0.23,0.59,-0.44,0.62,-0.1,-10.19,0.28,-1.35,0,0,0,-9.59,0.63,-1.9,13.8877449035645
,0,0.33,0.7,-0.23,0.59,-0.1,0.54,-0.05,-10.05,0.67,-1.7,0,0,0,-9.57,0.62,-1.99,13.907427072525
,0,0.33,0.7,-0.23,0.59,0.09,0.46,-0.03,-9.51,0.71,-2.48,0,0,0,-9.57,0.62,-2.04,13.9218130111694
,0,0.33,0.71,-0.23,0.58,0.14,0.46,-0.03,-9.52,1.08,-2.15,0,0,0,-9.55,0.61,-2.12,13.9376223087311
,0,0.33,0.71,-0.23,0.58,0.12,0.42,-0.03,-9.3,1.32,-2.23,0,0,0,-9.53,0.6,-2.2,13.9570164680481
,0,0.33,0.71,-0.23,0.58,0.11,0.42,-0.02,-9.21,1.47,-3.06,0,0,0,-9.52,0.6,-2.24,13.9714915752411
,0,0.33,0.71,-0.23,0.58,0.03,0.41,-0.03,-9.37,1.34,-2.81,0,0,0,-9.5,0.59,-2.31,13.9881162643433
,0,0.33,0.72,-0.22,0.57,-0.12,0.38,-0.04,-9.35,0.77,-2.99,0,0,0,-9.49,0.59,-2.38,14.007452249527
,0,0.33,0.72,-0.22,0.57,-0.05,0.39,-0.04,-9.47,0.63,-3.04,0,0,0,-9.48,0.58,-2.42,14.021803855896
,0,0.33,0.72,-0.22,0.57,-0.03,0.38,-0.04,-9.73,0.95,-2.21,0,0,0,-9.46,0.58,-2.49,14.0383658409119
,0,0.33,0.72,-0.22,0.57,0.03,0.35,-0.02,-9.61,0.68,-2.5,0,0,0,-9.44,0.57,-2.55,14.0578174591064
,0,0.33,0.72,-0.22,0.56,0.16,0.35,0.01,-9.74,0.51,-1.81,0,0,0,-9.44,0.57,-2.58,14.0721700191498
,0,0.34,0.72,-0.22,0.56,0.24,0.34,0.02,-9.66,0.86,-1.69,0,0,0,-9.42,0.56,-2.65,14.088748216629
,0,0.34,0.72,-0.22,0.56,0.35,0.36,0.03,-9.28,1.48,-2.19,0,0,0,-9.4,0.55,-2.72,14.1073346138
,0,0.34,0.72,-0.22,0.56,0.3,0.43,-0,-9.41,1.79,-2.53,0,0,0,-9.39,0.54,-2.76,14.12224650383
,0,0.34,0.73,-0.22,0.55,0.25,0.46,-0.03,-9.74,1.61,-2.38,0,0,0,-9.36,0.52,-2.85,14.1389520168304
,0,0.35,0.73,-0.22,0.55,0.22,0.51,-0.05,-9.76,1.14,-2.58,0,0,0,-9.33,0.49,-2.95,14.1578750610352
,0,0.35,0.73,-0.22,0.54,0.25,0.62,-0.11,-9.82,1.28,-2.89,0,0,0,-9.31,0.48,-3.01,14.1722097396851
,0,0.35,0.73,-0.22,0.54,0.24,0.67,-0.14,-9.96,0.91,-2.76,0,0,0,-9.27,0.44,-3.13,14.188823223114
,0,0.35,0.74,-0.22,0.53,0.23,0.72,-0.18,-10,0.62,-2.86,0,0,0,-9.23,0.39,-3.27,14.2078018188477
,0,0.35,0.74,-0.23,0.53,0.36,0.78,-0.21,-10.02,0.1,-2.37,0,0,0,-9.21,0.36,-3.34,14.2220101356506
,0,0.35,0.74,-0.23,0.52,0.5,0.8,-0.22,-9.86,0.05,-1.98,0,0,0,-9.15,0.28,-3.49,14.23881316185
,0,0.36,0.75,-0.23,0.51,0.7,0.88,-0.26,-9.59,0.11,-2.62,0,0,0,-9.09,0.18,-3.66,14.2573153972626
,0,0.36,0.75,-0.23,0.5,0.77,1,-0.35,-10.48,1.55,-2.38,0,0,0,-9.05,0.12,-3.75,14.2720098495483
,0,0.36,0.75,-0.24,0.49,0.74,1.03,-0.37,-10.23,0.54,-2.44,0,0,0,-8.98,0,-3.94,14.2886528968811
,0,0.37,0.76,-0.24,0.48,0.94,1.19,-0.45,-10.73,1.57,-2.38,0,0,0,-8.88,-0.15,-4.14,14.3073892593384
,0,0.37,0.76,-0.24,0.47,0.99,1.27,-0.49,-10.77,1.57,-2.21,0,0,0,-8.83,-0.23,-4.25,14.3222856521606
,0,0.37,0.77,-0.25,0.46,0.94,1.44,-0.56,-12.05,0.2,-0.99,0,0,0,-8.71,-0.4,-4.48,14.3385863304138
,0,0.38,0.77,-0.25,0.44,1.05,1.51,-0.58,-12.31,-0.07,-1,0,0,0,-8.56,-0.6,-4.73,14.3576066493988
,0,0.38,0.78,-0.26,0.43,1.35,1.63,-0.65,-13.35,-0.75,-0.95,0,0,0,-8.48,-0.72,-4.85,14.3725771903992
,0,0.38,0.78,-0.27,0.41,1.71,1.74,-0.7,-13.46,-1.25,-0.08,0,0,0,-8.3,-0.99,-5.11,14.3889517784119
,0,0.39,0.79,-0.28,0.39,1.9,1.79,-0.68,-12.33,0.87,-1.68,0,0,0,-8.11,-1.3,-5.35,14.4076974391937
,0,0.4,0.79,-0.28,0.38,2.12,1.93,-0.75,-11.68,1.1,-3.38,0,0,0,-7.99,-1.47,-5.47,14.4221222400665
,0,0.4,0.8,-0.29,0.35,1.49,2.12,-0.89,-13.07,1.63,-4.7,0,0,0,-7.74,-1.79,-5.74,14.4392957687378
,0,0.4,0.8,-0.29,0.33,1.19,2.09,-0.88,-11.57,1.69,-4.95,0,0,0,-7.47,-2.05,-6,14.4577577114105
,0,0.4,0.81,-0.3,0.32,1.04,1.96,-0.87,-10.14,-0.78,-7.81,0,0,0,-7.34,-2.17,-6.12,14.4728238582611
,0,0.4,0.81,-0.3,0.3,0.25,1.83,-0.77,-9.38,-0.43,-6.94,0,0,0,-7.08,-2.34,-6.36,14.4891865253448
,0,0.4,0.82,-0.29,0.28,0.09,1.69,-0.67,-8.15,-0.08,-3.61,0,0,0,-6.85,-2.44,-6.57,14.5079762935638
,0,0.4,0.82,-0.29,0.28,-0.01,1.16,-0.41,-8.09,0.55,-2.21,0,0,0,-6.77,-2.46,-6.64,14.5227251052856
,0,0.41,0.82,-0.29,0.27,-0.04,0.81,-0.25,-6.49,1.08,-1.87,0,0,0,-6.68,-2.48,-6.73,14.5392198562622
,0,0.41,0.82,-0.29,0.27,-0.17,0.17,0.05,-5.91,1.09,-1.26,0,0,0,-6.68,-2.44,-6.74,14.5581157207489
,0,0.41,0.82,-0.29,0.27,-0.15,-0.45,0.31,-5.72,0.97,-1.05,0,0,0,-6.71,-2.41,-6.72,14.5726675987244
,0,0.41,0.82,-0.29,0.28,-0.05,-0.76,0.41,-5.41,0.09,-2.1,0,0,0,-6.83,-2.34,-6.62,14.5896649360657
,0,0.41,0.81,-0.29,0.29,-0.04,-1.06,0.48,-5.39,-0.83,-1.71,0,0,0,-7.03,-2.27,-6.44,14.6085712909698
,0,0.41,0.81,-0.29,0.3,-0,-1.63,0.55,-5.33,-0.92,-1.9,0,0,0,-7.14,-2.23,-6.33,14.6230125427246
,0,0.41,0.8,-0.3,0.32,-0.04,-2.13,0.67,-5.63,-0.09,-2.83,0,0,0,-7.42,-2.13,-6.03,14.6393482685089
,0,0.41,0.79,-0.31,0.34,-0.09,-2.35,0.76,-6.88,-0.15,-3.65,0,0,0,-7.73,-2,-5.67,14.6584413051605
,0,0.41,0.78,-0.31,0.35,-0.23,-2.73,0.96,-7.29,-0.4,-3.45,0,0,0,-7.9,-1.92,-5.47,14.6735260486603
,0,0.41,0.77,-0.32,0.38,-0.29,-3.02,1.17,-9.04,-0.62,-3.44,0,0,0,-8.25,-1.7,-5.01,14.6901743412018
,0,0.41,0.75,-0.32,0.41,-0.28,-3.16,1.25,-9.48,-0.68,-4.19,0,0,0,-8.58,-1.47,-4.49,14.7090291976929
,0,0.4,0.74,-0.32,0.42,-0.28,-3.35,1.38,-9.6,-0.42,-4.67,0,0,0,-8.74,-1.34,-4.22,14.7234852313995
,0,0.4,0.72,-0.33,0.46,-0.42,-3.49,1.4,-10.42,-0.96,-4.8,0,0,0,-9.04,-1.07,-3.62,14.7406635284424
,0,0.4,0.7,-0.33,0.49,-0.47,-3.56,1.4,-11.12,-0.69,-5.38,0,0,0,-9.3,-0.79,-3,14.7591395378113
,0,0.39,0.69,-0.33,0.5,-0.51,-3.6,1.35,-10.84,-0.58,-5.59,0,0,0,-9.41,-0.65,-2.68,14.7734127044678
,0,0.39,0.67,-0.34,0.53,-0.54,-3.6,1.34,-10.91,-0.42,-5.46,0,0,0,-9.58,-0.38,-2.02,14.7906014919281
,0,0.38,0.65,-0.34,0.56,-0.56,-3.58,1.33,-10.79,-0.22,-5.79,0,0,0,-9.71,-0.12,-1.36,14.8090560436249
,0,0.38,0.64,-0.34,0.58,-0.73,-3.47,1.3,-10.35,-0.17,-6.65,0,0,0,-9.75,0.01,-1.03,14.8237969875336
,0,0.37,0.62,-0.34,0.6,-0.98,-3.18,1.27,-10.29,-0.58,-7.1,0,0,0,-9.79,0.26,-0.41,14.8416800498962
,0,0.36,0.6,-0.34,0.63,-1.11,-2.99,1.27,-10.04,-1.56,-7.11,0,0,0,-9.79,0.5,0.13,14.8598117828369
,0,0.36,0.59,-0.33,0.64,-1.06,-2.58,1.15,-9.89,-1.47,-7.31,0,0,0,-9.77,0.61,0.38,14.8747184276581
,0,0.35,0.58,-0.33,0.66,-0.82,-2.12,0.94,-8.44,-1.07,-8.36,0,0,0,-9.74,0.78,0.82,14.8913984298706
,0,0.35,0.57,-0.33,0.67,-0.62,-1.47,0.72,-7.19,-1.29,-9.01,0,0,0,-9.69,0.92,1.14,14.9100387096405
,0,0.34,0.56,-0.33,0.68,-0.49,-1.08,0.59,-6.8,-1.59,-9.31,0,0,0,-9.67,0.97,1.25,14.9244701862335
,0,0.34,0.56,-0.32,0.68,-0.23,-0.21,0.27,-6.34,-0.99,-9,0,0,0,-9.66,1.03,1.33,14.9419212341309
,0,0.34,0.56,-0.32,0.68,-0.12,0.59,-0.01,-8.89,1.36,-6.5,0,0,0,-9.66,1.03,1.26,14.9594347476959
,0,0.34,0.57,-0.32,0.68,-0.17,0.94,-0.15,-11.57,2.7,4.33,0,0,0,-9.68,1.02,1.17,14.9739854335785
,0,0.35,0.58,-0.32,0.67,0.04,1.02,-0.19,-14.62,-0.59,5.7,0,0,0,-9.7,0.97,0.97,14.9918403625488
,0,0.35,0.58,-0.31,0.67,-0.02,0.73,-0.01,-13.01,0.95,-1.05,0,0,0,-9.72,0.97,0.82,15.0102846622467
,0,0.35,0.58,-0.31,0.66,-0.13,0.83,-0.11,-12.3,-0.05,-2.42,0,0,0,-9.73,0.96,0.74,15.0243299007416
,0,0.35,0.59,-0.31,0.66,-0.55,1.04,-0.39,-10.36,0.32,0.14,0,0,0,-9.74,0.89,0.57,15.0426738262177
,0,0.35,0.6,-0.3,0.65,-0.35,1.29,-0.3,-9.94,0.45,-2.11,0,0,0,-9.76,0.82,0.34,15.0603301525116
,0,0.35,0.61,-0.3,0.65,-0.46,1.27,-0.25,-9.69,1.47,-2.13,0,0,0,-9.77,0.8,0.22,15.0747842788696
,0,0.34,0.62,-0.29,0.64,-0.87,1.06,-0.18,-9.24,1.33,-2.83,0,0,0,-9.77,0.75,0.02,15.0923178195953
,0,0.34,0.63,-0.29,0.64,-0.93,0.89,-0.1,-10.24,0,-1.09,0,0,0,-9.77,0.73,-0.13,15.1102602481842
,0,0.34,0.63,-0.28,0.64,-0.71,0.81,-0.06,-10.67,-0.31,-0.64,0,0,0,-9.77,0.73,-0.2,15.1249220371246
,0,0.34,0.63,-0.28,0.64,0.01,0.61,0.08,-9.97,-0.35,-0.53,0,0,0,-9.77,0.74,-0.32,15.1425447463989
,0,0.34,0.64,-0.28,0.63,0.64,0.62,0.07,-9.29,0.85,-0.63,0,0,0,-9.76,0.75,-0.45,15.1598443984985
,0,0.35,0.64,-0.28,0.63,0.81,0.64,0.03,-9.3,2.27,0.04,0,0,0,-9.76,0.75,-0.51,15.1749317646027
,0,0.35,0.64,-0.28,0.62,0.65,0.65,0,-9.44,2.63,-0.44,0,0,0,-9.75,0.75,-0.64,15.1927011013031
,0,0.36,0.64,-0.28,0.62,0.2,0.72,-0.01,-9.83,3.2,-1.6,0,0,0,-9.74,0.74,-0.78,15.2109522819519
,0,0.36,0.64,-0.28,0.61,-0.02,0.76,0,-9.84,3.75,-1.43,0,0,0,-9.74,0.74,-0.85,15.2254905700684
,0,0.36,0.65,-0.28,0.61,-0.41,0.73,-0.03,-9.75,1.7,-2.2,0,0,0,-9.72,0.74,-0.99,15.2435100078583
,0,0.36,0.66,-0.27,0.61,-0.62,0.67,-0.1,-10.01,0.12,-2.84,0,0,0,-9.71,0.74,-1.11,15.2608923912048
,0,0.35,0.66,-0.27,0.61,-0.46,0.67,-0.13,-9.96,0.94,-2.45,0,0,0,-9.7,0.73,-1.17,15.2756743431091
,0,0.35,0.67,-0.26,0.6,-0.48,0.68,-0.16,-10.04,1.87,-2.08,0,0,0,-9.69,0.71,-1.29,15.2926917076111
,0,0.35,0.67,-0.26,0.6,-0.68,0.59,-0.09,-9.93,0.21,-1.94,0,0,0,-9.67,0.71,-1.4,15.3114728927612
,0,0.35,0.67,-0.26,0.6,-0.66,0.58,-0.08,-10.02,-0.07,-1.54,0,0,0,-9.67,0.71,-1.45,15.3263208866119
,0,0.35,0.68,-0.25,0.6,-0.21,0.55,-0.03,-10.13,-0.03,-1.97,0,0,0,-9.65,0.71,-1.55,15.3441145420074
,0,0.35,0.68,-0.25,0.59,0.15,0.45,0,-9.84,0,-1.85,0,0,0,-9.64,0.71,-1.64,15.3616051673889
,0,0.35,0.68,-0.25,0.59,0.31,0.41,0.02,-9.92,0.4,-1.48,0,0,0,-9.63,0.7,-1.68,15.3759832382202
,0,0.35,0.68,-0.25,0.59,0.48,0.29,0.07,-9.27,1.1,-2.59,0,0,0,-9.62,0.7,-1.75,15.3947772979736
,0,0.36,0.68,-0.25,0.59,0.33,0.27,0.06,-9.32,1.35,-2.6,0,0,0,-9.61,0.7,-1.8,15.4137163162231
,0,0.36,0.68,-0.25,0.58,0.26,0.27,0.05,-9.53,1.64,-2.42,0,0,0,-9.6,0.7,-1.85,15.4289779663086
,0,0.36,0.68,-0.25,0.58,0.03,0.28,0.02,-9.52,1.29,-2.52,0,0,0,-9.59,0.7,-1.88,15.4468004703522
,0,0.36,0.69,-0.25,0.58,0.01,0.27,-0.02,-9.67,1.04,-2.02,0,0,0,-9.58,0.7,-1.93,15.4652214050293
,0,0.36,0.69,-0.25,0.58,0.06,0.28,-0.03,-9.58,0.82,-2.18,0,0,0,-9.57,0.69,-1.98,15.4800863265991
,0,0.36,0.69,-0.25,0.58,0.16,0.25,-0.02,-9.62,0.51,-1.82,0,0,0,-9.56,0.68,-2.03,15.4985687732697
,0,0.36,0.69,-0.26,0.57,0.37,0.28,-0.05,-9.77,0.56,-0.97,0,0,0,-9.56,0.66,-2.06,15.5170865058899
,0,0.37,0.69,-0.26,0.57,0.62,0.36,-0.07,-9.37,2.01,-1.58,0,0,0,-9.55,0.63,-2.13,15.531830072403
,0,0.37,0.69,-0.26,0.57,0.56,0.46,-0.11,-9.1,2.09,-1.81,0,0,0,-9.53,0.59,-2.22,15.5503458976746
,0,0.37,0.69,-0.26,0.56,0.5,0.53,-0.14,-9.11,2.03,-2.21,0,0,0,-9.52,0.56,-2.27,15.567723274231
,0,0.37,0.69,-0.26,0.56,0.35,0.6,-0.19,-9.39,1.54,-1.98,0,0,0,-9.49,0.51,-2.38,15.5831875801086
,0,0.38,0.7,-0.26,0.55,0.29,0.69,-0.26,-10.06,0.95,-2.25,0,0,0,-9.46,0.45,-2.51,15.6009893417358
,0,0.38,0.7,-0.26,0.54,0.23,0.72,-0.27,-10,0.72,-2.57,0,0,0,-9.43,0.39,-2.64,15.6180062294006
,0,0.38,0.7,-0.26,0.54,0.19,0.75,-0.28,-10.09,0.89,-2.61,0,0,0,-9.41,0.36,-2.71,15.6330645084381
,0,0.38,0.71,-0.26,0.53,0.15,0.74,-0.28,-10.11,0.33,-2.76,0,0,0,-9.37,0.3,-2.85,15.6513690948486
,0,0.38,0.71,-0.26,0.53,0.2,0.75,-0.28,-10.03,0.3,-2.39,0,0,0,-9.33,0.24,-2.99,15.6676490306854
,0,0.38,0.72,-0.26,0.52,0.34,0.79,-0.29,-9.78,0.71,-2.54,0,0,0,-9.31,0.2,-3.06,15.6834149360657
,0,0.38,0.72,-0.27,0.52,0.4,0.84,-0.32,-9.52,0.63,-2.92,0,0,0,-9.26,0.12,-3.21,15.7017986774445
,0,0.38,0.72,-0.27,0.51,0.47,0.92,-0.37,-10.58,1.36,-1.91,0,0,0,-9.2,0.02,-3.38,15.7185850143433
,0,0.39,0.73,-0.27,0.5,0.63,1.01,-0.39,-10.75,1.6,-2.01,0,0,0,-9.16,-0.03,-3.47,15.7333385944366
,0,0.39,0.73,-0.27,0.49,0.66,1.09,-0.42,-10.77,1.55,-0.84,0,0,0,-9.09,-0.14,-3.66,15.7530901432037
,0,0.39,0.74,-0.27,0.48,0.75,1.18,-0.46,-10.78,2.02,-1.45,0,0,0,-9,-0.28,-3.87,15.7696270942688
,0,0.39,0.74,-0.27,0.47,0.63,1.32,-0.52,-11.63,1.33,-0.94,0,0,0,-8.95,-0.35,-3.98,15.7847402095795
,0,0.4,0.75,-0.28,0.46,0.66,1.54,-0.63,-12.67,-0.24,-0.91,0,0,0,-8.82,-0.5,-4.23,15.8034222126007
,0,0.4,0.76,-0.28,0.44,0.79,1.61,-0.66,-13.61,-0.33,-0.25,0,0,0,-8.68,-0.69,-4.5,15.819347858429
,0,0.4,0.76,-0.28,0.43,0.99,1.74,-0.74,-13.87,-0.22,-0.53,0,0,0,-8.59,-0.8,-4.64,15.834545135498
,0,0.41,0.77,-0.28,0.41,1.14,1.85,-0.74,-13.12,0,-0.23,0,0,0,-8.41,-1.02,-4.92,15.8544476032257
,0,0.41,0.77,-0.29,0.39,1.26,1.92,-0.71,-12.16,1.8,-4.59,0,0,0,-8.21,-1.27,-5.2,15.8702528476715
,0,0.41,0.78,-0.29,0.38,1.48,2.02,-0.76,-12.8,1.6,-4.66,0,0,0,-8.09,-1.41,-5.34,15.8847680091858
,0,0.42,0.78,-0.3,0.35,1.2,2.13,-0.81,-12.73,0.69,-2.92,0,0,0,-7.84,-1.67,-5.63,15.9052400588989
,0,0.42,0.79,-0.3,0.33,1.2,2.05,-0.79,-10.4,-0.08,-8.09,0,0,0,-7.59,-1.92,-5.89,15.9208207130432
,0,0.42,0.79,-0.3,0.32,1.13,1.9,-0.82,-9.02,-0.57,-8.86,0,0,0,-7.46,-2.05,-6.01,15.9352502822876
,0,0.42,0.8,-0.3,0.3,0.31,1.81,-0.73,-8.02,-0.31,-6.6,0,0,0,-7.21,-2.22,-6.25,15.9552969932556
,0,0.42,0.81,-0.3,0.29,0.28,1.68,-0.62,-7.65,0.13,-3.35,0,0,0,-7,-2.32,-6.46,15.9707543849945
,0,0.43,0.81,-0.3,0.28,-0.22,1.07,-0.42,-6.56,0.31,-0.35,0,0,0,-6.92,-2.34,-6.53,15.9859757423401
,0,0.43,0.81,-0.29,0.28,-0.25,0.42,-0.07,-5.77,0.74,-1.83,0,0,0,-6.84,-2.32,-6.62,16.0058026313782
,0,0.43,0.81,-0.29,0.28,-0.25,-0.24,0.25,-5.36,0.39,-0.74,0,0,0,-6.85,-2.27,-6.63,16.021030664444
,0,0.43,0.81,-0.29,0.28,-0.09,-0.63,0.34,-5.11,-0.02,-1.92,0,0,0,-6.9,-2.24,-6.59,16.0362186431885
,0,0.43,0.8,-0.29,0.29,-0.08,-1.25,0.41,-5.57,-0.43,-1.45,0,0,0,-7.06,-2.17,-6.44,16.0568525791168
,0,0.43,0.8,-0.3,0.31,-0.13,-1.81,0.45,-5.53,-0.49,-1.26,0,0,0,-7.28,-2.1,-6.21,16.0712354183197
,0,0.43,0.79,-0.3,0.32,-0.18,-2.06,0.5,-5.53,0,-2.43,0,0,0,-7.41,-2.05,-6.07,16.0863718986511
,0,0.42,0.78,-0.31,0.34,-0.32,-2.52,0.65,-6.12,0.33,-3.09,0,0,0,-7.71,-1.93,-5.73,16.1064531803131
,0,0.42,0.77,-0.31,0.36,-0.59,-2.9,0.86,-7.44,-0.49,-2.87,0,0,0,-8.04,-1.75,-5.32,16.1217525005341
,0,0.42,0.77,-0.31,0.38,-0.6,-3.06,0.97,-7.95,-0.81,-3.17,0,0,0,-8.21,-1.65,-5.09,16.1371147632599
,0,0.41,0.75,-0.32,0.41,-0.56,-3.33,1.12,-9.51,-0.24,-4.15,0,0,0,-8.55,-1.42,-4.58,16.1571943759918
,0,0.41,0.73,-0.32,0.44,-0.61,-3.51,1.26,-10.2,-0.58,-4.25,0,0,0,-8.87,-1.16,-4,16.1715948581696
,0,0.4,0.72,-0.33,0.47,-0.67,-3.6,1.28,-10.07,-0.64,-4.27,0,0,0,-9.02,-1.03,-3.7,16.18807721138
,0,0.4,0.69,-0.33,0.5,-0.7,-3.71,1.28,-11.28,-0.63,-4.83,0,0,0,-9.28,-0.75,-3.06,16.2073361873627
,0,0.39,0.68,-0.33,0.52,-0.72,-3.8,1.28,-11.61,-0.31,-5.18,0,0,0,-9.5,-0.48,-2.38,16.2224676609039
,0,0.38,0.66,-0.34,0.55,-0.72,-3.81,1.31,-11.56,-0.16,-5.12,0,0,0,-9.65,-0.21,-1.68,16.2382130622864
,0,0.38,0.64,-0.34,0.58,-0.77,-3.78,1.33,-11.59,0.1,-6,0,0,0,-9.71,-0.07,-1.32,16.2575454711914
,0,0.37,0.63,-0.34,0.6,-1.01,-3.61,1.29,-11.27,0.17,-7.04,0,0,0,-9.78,0.18,-0.63,16.2727861404419
,0,0.36,0.61,-0.33,0.62,-1.18,-3.44,1.24,-11.1,0.09,-7.24,0,0,0,-9.79,0.42,0,16.289368391037
,0,0.35,0.59,-0.33,0.65,-1.42,-3.01,1.16,-10.44,-1.19,-7.9,0,0,0,-9.78,0.53,0.29,16.3079297542572
,0,0.34,0.58,-0.33,0.66,-1.23,-2.48,0.97,-9.78,-1.55,-8.19,0,0,0,-9.74,0.71,0.8,16.3225927352905
,0,0.34,0.57,-0.32,0.68,-1.04,-2.18,0.86,-8.76,-0.93,-8.9,0,0,0,-9.69,0.84,1.19,16.3389837741852
,0,0.33,0.56,-0.32,0.69,-0.73,-1.43,0.63,-6.87,-1.01,-9.83,0,0,0,-9.67,0.89,1.33,16.3575809001923
,0,0.33,0.56,-0.32,0.69,-0.46,-0.46,0.3,-5.79,-1.01,-10.58,0,0,0,-9.64,0.95,1.48,16.3726797103882
,0,0.33,0.56,-0.31,0.69,-0.38,0.03,0.13,-6.01,-0.79,-10.13,0,0,0,-9.65,0.95,1.43,16.3890454769135
,0,0.33,0.57,-0.31,0.68,-0.21,0.91,-0.16,-8.25,1.52,-6.89,0,0,0,-9.66,0.93,1.35,16.4076845645905
,0,0.33,0.58,-0.31,0.68,-0.41,1.23,-0.32,-14.48,-1.12,18.86,0,0,0,-9.7,0.87,1.13,16.4228925704956
,0,0.33,0.58,-0.31,0.67,0.29,0.94,-0.1,-14.41,-0.12,2.24,0,0,0,-9.71,0.87,0.97,16.4392583370209
,0,0.34,0.59,-0.31,0.67,0.4,0.66,0,-13.5,0.57,-0.6,0,0,0,-9.72,0.87,0.9,16.458349943161
,0,0.34,0.59,-0.31,0.67,-0.11,0.84,-0.25,-10.12,-0.53,-1.08,0,0,0,-9.74,0.84,0.75,16.4729375839233
,0,0.34,0.6,-0.3,0.66,-0.29,0.98,-0.39,-10.56,0.93,0.01,0,0,0,-9.76,0.77,0.55,16.4894773960114
,0,0.34,0.61,-0.3,0.65,-0.26,1.21,-0.24,-10.07,1,-2.77,0,0,0,-9.76,0.75,0.44,16.5082590579987
,0,0.34,0.61,-0.3,0.65,-0.63,1.05,-0.16,-10.02,0.7,-2.69,0,0,0,-9.77,0.71,0.23,16.5229442119598
,0,0.33,0.62,-0.29,0.65,-0.63,0.96,-0.14,-9.77,0.88,-2.53,0,0,0,-9.78,0.69,0.07,16.5391445159912
,0,0.33,0.63,-0.29,0.64,-0.51,0.8,-0.09,-10.06,0.27,-1.03,0,0,0,-9.78,0.68,0,16.5582764148712
,0,0.33,0.63,-0.29,0.64,-0.08,0.6,-0,-10.01,0.06,-0.75,0,0,0,-9.78,0.67,-0.11,16.5728294849396
,0,0.34,0.63,-0.28,0.64,0.16,0.52,0.06,-9.39,0.28,-0.8,0,0,0,-9.77,0.68,-0.22,16.5887448787689
,0,0.34,0.63,-0.29,0.63,0.46,0.57,0.04,-8.74,0.66,-0.53,0,0,0,-9.77,0.69,-0.27,16.607917547226
,0,0.34,0.63,-0.29,0.63,0.53,0.62,0.03,-9.72,1.32,0.56,0,0,0,-9.77,0.69,-0.4,16.6221966743469
,0,0.35,0.64,-0.29,0.63,0.45,0.61,0.04,-9.8,1.44,-0.6,0,0,0,-9.77,0.69,-0.46,16.6379442214966
,0,0.35,0.64,-0.28,0.62,0.06,0.65,0.03,-10.11,3.4,-1.74,0,0,0,-9.76,0.7,-0.58,16.6579527854919
,0,0.35,0.64,-0.28,0.62,-0.27,0.7,0.02,-9.8,2.24,-2.09,0,0,0,-9.75,0.7,-0.71,16.6724147796631
,0,0.35,0.65,-0.28,0.62,-0.39,0.69,-0.01,-9.57,1.3,-2.08,0,0,0,-9.74,0.71,-0.77,16.6878933906555
,0,0.35,0.65,-0.27,0.61,-0.26,0.67,-0.09,-9.89,1.74,-2.26,0,0,0,-9.73,0.7,-0.89,16.7082154750824
,0,0.35,0.66,-0.27,0.61,-0.28,0.64,-0.17,-10.15,1.5,-1.91,0,0,0,-9.72,0.67,-1.01,16.722708940506
,0,0.34,0.66,-0.27,0.61,-0.4,0.61,-0.18,-9.94,1.3,-1.53,0,0,0,-9.72,0.66,-1.07,16.7379288673401
,0,0.34,0.67,-0.26,0.61,-0.49,0.59,-0.15,-10,0.84,-0.94,0,0,0,-9.71,0.64,-1.18,16.7578818798065
,0,0.34,0.67,-0.26,0.61,-0.31,0.55,-0.1,-10.22,0.7,-1.34,0,0,0,-9.7,0.63,-1.28,16.7724943161011
,0,0.34,0.67,-0.26,0.6,-0.2,0.52,-0.07,-9.79,-0.24,-1.83,0,0,0,-9.69,0.62,-1.32,16.7880902290344
,0,0.34,0.68,-0.26,0.6,0.07,0.42,-0.06,-9.78,-0.09,-1.36,0,0,0,-9.68,0.61,-1.41,16.8080394268036
,0,0.34,0.68,-0.26,0.6,0.29,0.35,-0,-9.25,0.96,-1.97,0,0,0,-9.67,0.6,-1.48,16.8226587772369
,0,0.35,0.68,-0.26,0.59,0.3,0.33,0,-9.15,1.07,-2.43,0,0,0,-9.66,0.59,-1.54,16.8386831283569
,0,0.35,0.68,-0.26,0.59,0.15,0.37,-0.01,-9.14,1.56,-2.34,0,0,0,-9.65,0.59,-1.58,16.8584623336792
,0,0.35,0.68,-0.26,0.59,-0.05,0.44,-0.07,-9.17,1.1,-2.19,0,0,0,-9.64,0.58,-1.66,16.8731758594513
,0,0.35,0.68,-0.26,0.59,-0.09,0.47,-0.09,-9.23,0.9,-2.06,0,0,0,-9.63,0.57,-1.7,16.888640165329
,0,0.35,0.69,-0.26,0.58,0.05,0.54,-0.14,-9.5,1.78,-1.66,0,0,0,-9.62,0.55,-1.8,16.9086105823517
,0,0.35,0.69,-0.26,0.58,0.05,0.56,-0.14,-9.7,0.94,-1.5,0,0,0,-9.6,0.52,-1.9,16.9232459068298
,0,0.35,0.69,-0.25,0.58,0.07,0.57,-0.15,-9.94,0.71,-1.15,0,0,0,-9.59,0.5,-1.96,16.939092874527
,0,0.35,0.7,-0.26,0.57,0.19,0.57,-0.16,-9.96,0.51,-1.54,0,0,0,-9.57,0.47,-2.07,16.959085226059
,0,0.35,0.7,-0.26,0.57,0.27,0.55,-0.16,-9.79,0.94,-2.1,0,0,0,-9.55,0.43,-2.17,16.9735336303711
,0,0.35,0.7,-0.26,0.56,0.23,0.54,-0.15,-9.77,1.1,-2.54,0,0,0,-9.53,0.39,-2.27,16.9890263080597
,0,0.36,0.7,-0.26,0.56,0.21,0.55,-0.15,-9.66,1.13,-2.62,0,0,0,-9.51,0.37,-2.32,17.0088922977448
,0,0.36,0.71,-0.26,0.56,0.13,0.55,-0.15,-9.52,0.85,-3.05,0,0,0,-9.49,0.34,-2.42,17.0231077671051
,0,0.36,0.71,-0.26,0.55,0.08,0.56,-0.17,-9.49,0.69,-3.25,0,0,0,-9.46,0.3,-2.53,17.0394113063812
,0,0.36,0.71,-0.26,0.55,0.09,0.63,-0.19,-9.67,0.85,-3.03,0,0,0,-9.43,0.26,-2.65,17.0588827133179
,0,0.36,0.71,-0.26,0.54,0.14,0.65,-0.21,-9.7,0.39,-3.37,0,0,0,-9.42,0.24,-2.71,17.0735259056091
,0,0.36,0.72,-0.26,0.54,0.2,0.67,-0.22,-9.73,0.21,-2.98,0,0,0,-9.38,0.19,-2.83,17.0892343521118
,0,0.36,0.72,-0.26,0.53,0.32,0.69,-0.25,-10.07,0.2,-2.66,0,0,0,-9.34,0.12,-2.96,17.1088035106659
,0,0.36,0.72,-0.26,0.53,0.45,0.68,-0.22,-10.19,0.36,-2.25,0,0,0,-9.32,0.09,-3.02,17.1235964298248
,0,0.36,0.73,-0.26,0.52,0.5,0.69,-0.21,-9.71,0.1,-2.87,0,0,0,-9.3,0.06,-3.08,17.1396331787109
,0,0.37,0.73,-0.26,0.51,0.77,0.83,-0.33,-10.5,2.27,-1.88,0,0,0,-9.26,-0.03,-3.22,17.1590275764465
,0,0.37,0.73,-0.27,0.51,0.69,0.9,-0.36,-10.08,1.6,-1.87,0,0,0,-9.2,-0.14,-3.38,17.1732778549194
,0,0.37,0.74,-0.27,0.5,0.68,0.97,-0.41,-10.49,1.6,-0.71,0,0,0,-9.17,-0.2,-3.46,17.1893055438995
,0,0.38,0.74,-0.27,0.48,0.74,1.13,-0.51,-11.06,1.23,-2.06,0,0,0,-9.09,-0.34,-3.65,17.2095737457275
,0,0.38,0.75,-0.27,0.48,0.63,1.36,-0.64,-12.6,-0.07,-0.63,0,0,0,-8.99,-0.49,-3.87,17.2239384651184
,0,0.38,0.75,-0.28,0.46,0.67,1.45,-0.69,-13.03,-0.96,-1.02,0,0,0,-8.93,-0.58,-4,17.2388391494751
,0,0.38,0.76,-0.28,0.44,1.06,1.66,-0.79,-13.9,-2.58,0.46,0,0,0,-8.79,-0.78,-4.26,17.2591798305511
,0,0.38,0.76,-0.29,0.43,1.57,1.78,-0.87,-14.17,-0.29,0.68,0,0,0,-8.63,-1.05,-4.53,17.2743108272552
,0,0.39,0.77,-0.3,0.41,1.73,1.87,-0.9,-13.8,0.51,0.47,0,0,0,-8.43,-1.35,-4.8,17.2895500659943
,0,0.4,0.78,-0.3,0.38,1.58,2,-0.92,-12.22,2.34,-1.58,0,0,0,-8.21,-1.65,-5.09,17.309093952179
,0,0.4,0.78,-0.31,0.37,1.49,2.2,-0.88,-11.97,3.16,-7.63,0,0,0,-8.09,-1.79,-5.23,17.3237111568451
,0,0.4,0.79,-0.31,0.35,1.07,2.25,-0.97,-12.8,1.8,-6.5,0,0,0,-7.82,-2.03,-5.55,17.3394827842712
,0,0.4,0.8,-0.31,0.33,0.68,2.14,-0.93,-10.93,-0.7,-6.89,0,0,0,-7.55,-2.24,-5.83,17.3592898845673
,0,0.4,0.8,-0.31,0.32,0.38,2.02,-0.82,-9.61,-0.74,-8.5,0,0,0,-7.41,-2.32,-5.97,17.3737943172455
,0,0.4,0.81,-0.3,0.3,0.02,1.91,-0.73,-9.11,0.37,-4.07,0,0,0,-7.17,-2.41,-6.23,17.3893172740936
,0,0.4,0.81,-0.3,0.29,-0.23,1.43,-0.34,-8.51,0.06,-0.06,0,0,0,-7.01,-2.42,-6.41,17.4091947078705
,0,0.41,0.82,-0.3,0.29,0.1,0.69,0.06,-6.16,0.69,-1.68,0,0,0,-6.97,-2.42,-6.45,17.424480676651
,0,0.41,0.81,-0.3,0.29,0.11,0.34,0.21,-6.23,0.57,-0.61,0,0,0,-6.96,-2.41,-6.47,17.4393765926361
,0,0.42,0.81,-0.3,0.29,0.49,-0.32,0.47,-5.41,-0.22,-1.54,0,0,0,-7.04,-2.41,-6.38,17.4594221115112
,0,0.42,0.8,-0.3,0.29,0.61,-0.93,0.52,-5.51,-0.89,-1.2,0,0,0,-7.11,-2.41,-6.3,17.4735667705536
,0,0.42,0.8,-0.31,0.3,0.63,-1.21,0.53,-5.05,-0.7,-1.73,0,0,0,-7.19,-2.41,-6.2,17.4896802902222
,0,0.42,0.79,-0.32,0.32,0.46,-1.72,0.61,-5.01,-0.09,-2.62,0,0,0,-7.41,-2.39,-5.95,17.5094411373138
,0,0.42,0.78,-0.33,0.33,0.12,-2.17,0.8,-6.01,0.13,-2.78,0,0,0,-7.67,-2.3,-5.64,17.5242252349854
,0,0.42,0.77,-0.33,0.35,-0.03,-2.36,0.92,-6.42,0.14,-2.66,0,0,0,-7.98,-2.14,-5.28,17.5393679141998
,0,0.42,0.76,-0.34,0.37,-0.32,-2.67,1.15,-7.48,-0.33,-3.32,0,0,0,-8.29,-1.92,-4.86,17.559709072113
,0,0.42,0.75,-0.34,0.39,-0.48,-2.95,1.33,-8.32,-0.68,-3.56,0,0,0,-8.45,-1.79,-4.63,17.5742244720459
,0,0.41,0.73,-0.34,0.42,-0.51,-3.08,1.41,-8.63,-0.86,-3.6,0,0,0,-8.76,-1.5,-4.12,17.5893971920013
,0,0.41,0.72,-0.34,0.45,-0.53,-3.26,1.46,-9.37,-1.08,-4.18,0,0,0,-9.05,-1.21,-3.57,17.6094810962677
,0,0.41,0.71,-0.35,0.46,-0.57,-3.46,1.42,-10.12,-0.98,-4.27,0,0,0,-9.18,-1.07,-3.27,17.6244032382965
,0,0.4,0.69,-0.35,0.49,-0.53,-3.53,1.4,-10.51,-0.87,-4.52,0,0,0,-9.41,-0.78,-2.63,17.6399095058441
,0,0.4,0.66,-0.35,0.52,-0.56,-3.68,1.4,-11.04,-0.53,-5.55,0,0,0,-9.59,-0.5,-1.96,17.6596686840057
,0,0.39,0.65,-0.35,0.54,-0.66,-3.66,1.42,-10.64,0.02,-6.67,0,0,0,-9.66,-0.36,-1.62,17.6741666793823
,0,0.39,0.63,-0.35,0.57,-0.78,-3.57,1.43,-10.66,0.1,-6.57,0,0,0,-9.75,-0.06,-0.96,17.6900978088379
,0,0.38,0.61,-0.35,0.6,-1.11,-3.37,1.42,-10.82,-0.53,-6.02,0,0,0,-9.79,0.2,-0.34,17.7098715305328
,0,0.37,0.6,-0.35,0.61,-1.27,-3.09,1.31,-10.73,-0.62,-6.9,0,0,0,-9.8,0.33,-0.04,17.7244760990143
,0,0.36,0.59,-0.35,0.64,-1.27,-2.9,1.25,-10.86,-0.98,-7.14,0,0,0,-9.77,0.55,0.49,17.7394909858704
,0,0.35,0.57,-0.34,0.66,-1.12,-2.44,1.07,-10.23,-1.06,-7.38,0,0,0,-9.73,0.73,0.94,17.7598481178284
,0,0.35,0.57,-0.34,0.67,-0.81,-1.88,0.85,-8.33,-0.9,-9.21,0,0,0,-9.7,0.8,1.12,17.7746126651764
,0,0.35,0.56,-0.34,0.68,-0.67,-1.53,0.75,-7.59,-1.17,-9.35,0,0,0,-9.66,0.92,1.38,17.7899367809296
,0,0.35,0.55,-0.33,0.68,-0.32,-0.65,0.48,-6.54,-1.37,-9.27,0,0,0,-9.64,0.99,1.47,17.8095953464508
,0,0.35,0.55,-0.33,0.68,-0.06,0.25,0.19,-6.41,-0.95,-9.06,0,0,0,-9.64,1,1.44,17.8242778778076
,0,0.35,0.56,-0.33,0.68,-0.03,0.68,0.02,-7.85,-0.05,-7.33,0,0,0,-9.67,0.98,1.28,17.8403520584106
,0,0.35,0.57,-0.33,0.67,-0.42,1.31,-0.38,-14.72,-0.39,18.21,0,0,0,-9.7,0.92,1.06,17.8604862689972
,0,0.35,0.57,-0.32,0.67,-0.12,0.81,-0.08,-13.67,-1.08,2.84,0,0,0,-9.71,0.91,0.99,17.8746652603149
,0,0.35,0.58,-0.32,0.66,0.05,0.77,-0.07,-12.45,0.15,1.55,0,0,0,-9.73,0.89,0.83,17.8902735710144
,0,0.35,0.59,-0.32,0.66,-0.59,0.98,-0.31,-9.96,-1.57,-0.85,0,0,0,-9.75,0.81,0.64,17.9103882312775
,0,0.35,0.59,-0.32,0.65,-0.45,1.27,-0.45,-10.29,2.01,-1.19,0,0,0,-9.76,0.77,0.53,17.9250547885895
,0,0.34,0.61,-0.31,0.65,-0.64,1.33,-0.42,-10.1,1.9,-1.26,0,0,0,-9.77,0.69,0.28,17.9406032562256
,0,0.34,0.62,-0.3,0.64,-1.12,1.33,-0.31,-9.5,1.37,-2.53,0,0,0,-9.78,0.63,0.06,17.9599368572235
,0,0.34,0.62,-0.29,0.64,-1.44,1.13,-0.21,-10,-0.59,-2.61,0,0,0,-9.78,0.61,-0.03,17.9746308326721
,0,0.33,0.63,-0.28,0.64,-1.4,1.07,-0.19,-10.74,-1.31,-1.56,0,0,0,-9.78,0.58,-0.21,17.9905042648315
,0,0.33,0.64,-0.28,0.64,-0.48,0.72,-0.01,-10.79,-2.25,-1.48,0,0,0,-9.78,0.59,-0.33,18.0101618766785
,0,0.33,0.64,-0.28,0.63,0.48,0.61,0.1,-10.47,-0.53,-1.08,0,0,0,-9.77,0.6,-0.39,18.0248115062714
,0,0.34,0.64,-0.28,0.63,0.68,0.57,0.07,-10.28,0.1,-0.6,0,0,0,-9.77,0.61,-0.51,18.0397472381592
,0,0.35,0.64,-0.29,0.62,0.84,0.64,0.08,-9.26,2.88,-0.64,0,0,0,-9.76,0.61,-0.58,18.059677362442
,0,0.35,0.64,-0.29,0.62,0.41,0.7,0.04,-9.2,2.52,-0.76,0,0,0,-9.76,0.61,-0.71,18.0747287273407
,0,0.35,0.65,-0.28,0.61,0.2,0.69,0.02,-9.39,3.66,-1.33,0,0,0,-9.75,0.61,-0.78,18.0902786254883
,0,0.35,0.65,-0.28,0.61,-0.16,0.7,0.03,-9.54,3.1,-1.92,0,0,0,-9.74,0.62,-0.92,18.1097204685211
,0,0.35,0.66,-0.28,0.61,-0.47,0.63,-0.01,-9.62,0.85,-2.56,0,0,0,-9.73,0.63,-1.03,18.1243903636932
,0,0.35,0.66,-0.27,0.61,-0.34,0.65,-0.04,-9.94,1.2,-1.88,0,0,0,-9.72,0.63,-1.09,18.1397728919983
,0,0.35,0.67,-0.27,0.6,-0.37,0.63,-0.15,-9.81,1.37,-2.09,0,0,0,-9.71,0.62,-1.21,18.1596314907074
,0,0.35,0.67,-0.27,0.6,-0.56,0.67,-0.17,-9.59,2.3,-2.42,0,0,0,-9.69,0.6,-1.33,18.1743116378784
,0,0.34,0.67,-0.26,0.6,-0.71,0.65,-0.14,-9.69,1.23,-2.37,0,0,0,-9.68,0.59,-1.39,18.189873456955
,0,0.34,0.68,-0.25,0.6,-0.72,0.6,-0.1,-10.1,-0.46,-1.48,0,0,0,-9.67,0.59,-1.49,18.2099685668945
,0,0.34,0.68,-0.25,0.6,-0.11,0.54,-0.07,-10.13,-0.57,-1.59,0,0,0,-9.65,0.59,-1.59,18.2240869998932
,0,0.34,0.68,-0.25,0.59,0.18,0.5,-0.05,-9.75,-0.04,-1.79,0,0,0,-9.64,0.58,-1.64,18.2395131587982
,0,0.35,0.69,-0.26,0.59,0.38,0.47,-0.01,-9.39,1.16,-2.24,0,0,0,-9.63,0.56,-1.74,18.259241104126
,0,0.35,0.69,-0.26,0.58,0.25,0.44,-0.03,-9.24,1.71,-2.45,0,0,0,-9.61,0.55,-1.82,18.2740950584412
,0,0.35,0.69,-0.25,0.58,0.14,0.44,-0.03,-9.12,1.29,-2.5,0,0,0,-9.61,0.55,-1.86,18.2894251346588
,0,0.35,0.69,-0.25,0.58,-0.08,0.42,-0.05,-9.15,1.15,-2.79,0,0,0,-9.59,0.54,-1.94,18.3094217777252
,0,0.35,0.69,-0.25,0.58,-0.15,0.43,-0.09,-9.48,0.43,-2.36,0,0,0,-9.58,0.53,-2.02,18.323667049408
,0,0.35,0.7,-0.25,0.57,-0.13,0.45,-0.11,-9.56,0.69,-2.22,0,0,0,-9.57,0.52,-2.06,18.3387682437897
,0,0.35,0.7,-0.25,0.57,-0.09,0.44,-0.11,-9.45,1.01,-1.95,0,0,0,-9.55,0.5,-2.14,18.3583121299744
,0,0.35,0.7,-0.25,0.57,-0.04,0.44,-0.09,-9.71,0.91,-1.74,0,0,0,-9.53,0.49,-2.22,18.3733127117157
,0,0.35,0.7,-0.25,0.57,0.03,0.43,-0.08,-9.8,0.94,-1.87,0,0,0,-9.52,0.48,-2.26,18.3885037899017
,0,0.35,0.7,-0.25,0.56,0.18,0.42,-0.07,-9.58,0.81,-2.56,0,0,0,-9.5,0.46,-2.34,18.4054110050201
,0,0.35,0.71,-0.25,0.56,0.22,0.42,-0.06,-9.66,0.9,-2.18,0,0,0,-9.49,0.44,-2.42,18.422402381897
,0,0.35,0.71,-0.25,0.56,0.27,0.44,-0.06,-9.7,1.18,-2.32,0,0,0,-9.48,0.43,-2.47,18.4370114803314
,0,0.36,0.71,-0.25,0.56,0.15,0.43,-0.08,-9.36,0.5,-3.25,0,0,0,-9.46,0.41,-2.55,18.4531242847443
,0,0.36,0.71,-0.25,0.55,0.19,0.48,-0.09,-9.62,0.82,-2.89,0,0,0,-9.43,0.38,-2.64,18.4717001914978
,0,0.36,0.71,-0.25,0.55,0.17,0.55,-0.14,-9.62,0.77,-2.87,0,0,0,-9.42,0.36,-2.69,18.4862225055695
,0,0.36,0.72,-0.25,0.54,0.17,0.59,-0.17,-9.73,0.48,-3,0,0,0,-9.39,0.32,-2.8,18.5028762817383
,0,0.36,0.72,-0.25,0.54,0.2,0.62,-0.2,-10.46,0.68,-2.22,0,0,0,-9.35,0.27,-2.91,18.5220217704773
,0,0.36,0.72,-0.25,0.53,0.34,0.66,-0.21,-10.71,0.9,-1.88,0,0,0,-9.33,0.24,-2.97,18.5364925861359
,0,0.36,0.73,-0.25,0.53,0.45,0.71,-0.21,-10.36,0.62,-2.01,0,0,0,-9.3,0.18,-3.1,18.5526461601257
,0,0.37,0.73,-0.25,0.52,0.54,0.77,-0.23,-9.62,0.86,-2.49,0,0,0,-9.25,0.1,-3.24,18.5715556144714
,0,0.37,0.73,-0.26,0.51,0.68,0.9,-0.32,-10.1,1.61,-1.5,0,0,0,-9.22,0.05,-3.33,18.5860235691071
,0,0.37,0.74,-0.26,0.5,0.66,1,-0.38,-9.93,1.64,-2.53,0,0,0,-9.15,-0.05,-3.5,18.6024484634399
,0,0.37,0.74,-0.26,0.49,0.62,1.1,-0.43,-10.71,1.6,-1.24,0,0,0,-9.07,-0.18,-3.7,18.6217505931854
,0,0.38,0.74,-0.26,0.49,0.68,1.24,-0.54,-10.54,1.68,-2.24,0,0,0,-9.03,-0.25,-3.81,18.6360239982605
,0,0.38,0.75,-0.27,0.47,0.61,1.41,-0.6,-11.67,1.08,-1.71,0,0,0,-8.92,-0.4,-4.04,18.6528265476227
,0,0.38,0.76,-0.27,0.46,0.62,1.5,-0.64,-12.94,-0.59,-0.81,0,0,0,-8.79,-0.57,-4.3,18.6718149185181
,0,0.38,0.76,-0.27,0.45,0.89,1.64,-0.67,-12.75,-1.02,-0.46,0,0,0,-8.71,-0.66,-4.43,18.6862463951111
,0,0.39,0.77,-0.27,0.43,1.3,1.8,-0.7,-13.64,-1,-0.38,0,0,0,-8.55,-0.89,-4.71,18.7030518054962
,0,0.39,0.78,-0.28,0.41,1.49,1.86,-0.75,-13.46,-0.15,-0.06,0,0,0,-8.36,-1.16,-4.99,18.7221882343292
,0,0.4,0.78,-0.29,0.4,1.85,1.92,-0.72,-12.78,0.73,-0.64,0,0,0,-8.25,-1.31,-5.12,18.7366349697113
,0,0.4,0.78,-0.3,0.37,1.95,2.01,-0.75,-11.86,1.28,-5.34,0,0,0,-8.03,-1.62,-5.38,18.7533268928528
,0,0.41,0.79,-0.3,0.35,1.84,2.08,-0.83,-12.25,0.78,-4.95,0,0,0,-7.78,-1.93,-5.64,18.7720098495483
,0,0.41,0.79,-0.31,0.33,1.38,2.07,-0.83,-10.56,-0.04,-5.6,0,0,0,-7.65,-2.06,-5.77,18.7870180606842
,0,0.41,0.8,-0.31,0.31,1.3,1.99,-0.74,-9.03,-0.72,-9.11,0,0,0,-7.39,-2.33,-6,18.8031313419342
,0,0.42,0.8,-0.31,0.29,0.71,1.97,-0.7,-8.49,0.21,-4.95,0,0,0,-7.13,-2.48,-6.24,18.8224713802338
,0,0.42,0.81,-0.31,0.29,0.11,1.61,-0.4,-8.59,0.42,-2.37,0,0,0,-7.02,-2.52,-6.35,18.8369693756104
,0,0.42,0.81,-0.3,0.28,-0.03,0.93,0.01,-6.86,0.4,0.12,0,0,0,-6.88,-2.53,-6.5,18.8539152145386
,0,0.42,0.81,-0.3,0.27,0.05,0.53,0.2,-5.96,0.52,-1.18,0,0,0,-6.85,-2.5,-6.55,18.8722290992737
,0,0.43,0.81,-0.3,0.28,0.06,-0.17,0.43,-5.4,-0.68,-0.66,0,0,0,-6.87,-2.47,-6.54,18.8871936798096
,0,0.43,0.8,-0.3,0.28,0.33,-0.84,0.58,-5.35,-0.46,-1.74,0,0,0,-6.98,-2.43,-6.43,18.9043655395508
,0,0.43,0.8,-0.31,0.29,0.37,-1.13,0.62,-5.26,-1.07,-2.26,0,0,0,-7.16,-2.39,-6.24,18.923220872879
,0,0.43,0.79,-0.31,0.3,0.37,-1.64,0.7,-5.43,-0.9,-2.08,0,0,0,-7.28,-2.37,-6.12,18.9376816749573
,0,0.43,0.78,-0.32,0.31,0.17,-2.11,0.84,-6.09,0.18,-2.54,0,0,0,-7.55,-2.28,-5.82,18.9548451900482
,0,0.43,0.77,-0.33,0.34,0,-2.32,0.93,-6.56,-0.11,-2.7,0,0,0,-7.85,-2.13,-5.46,18.9729912281036
,0,0.43,0.76,-0.33,0.35,-0.28,-2.67,1.07,-6.87,-0.33,-3.01,0,0,0,-8.01,-2.03,-5.26,18.9876556396484
,0,0.43,0.75,-0.34,0.37,-0.39,-2.94,1.18,-8.15,-0.95,-4.17,0,0,0,-8.34,-1.81,-4.82,19.0048623085022
,0,0.43,0.73,-0.34,0.4,-0.39,-3.07,1.24,-9.49,-1,-4.07,0,0,0,-8.65,-1.57,-4.33,19.0237290859222
,0,0.42,0.73,-0.34,0.42,-0.45,-3.22,1.34,-9.99,-1.04,-4.16,0,0,0,-8.8,-1.44,-4.06,19.0385556221008
,0,0.42,0.71,-0.35,0.45,-0.49,-3.37,1.32,-9.65,-1.13,-4.64,0,0,0,-9.08,-1.17,-3.5,19.0553321838379
,0,0.41,0.69,-0.35,0.48,-0.48,-3.47,1.3,-10.49,-0.73,-4.81,0,0,0,-9.32,-0.91,-2.89,19.0738253593445
,0,0.41,0.68,-0.36,0.49,-0.47,-3.49,1.32,-10.72,-0.51,-4.86,0,0,0,-9.42,-0.78,-2.58,19.0881545543671
,0,0.41,0.66,-0.36,0.52,-0.51,-3.52,1.37,-10.83,0.08,-5.45,0,0,0,-9.59,-0.5,-1.94,19.1057851314545
,0,0.4,0.64,-0.36,0.55,-0.76,-3.47,1.39,-11.09,0.27,-5.6,0,0,0,-9.71,-0.22,-1.29,19.1235551834106
,0,0.4,0.63,-0.36,0.56,-0.92,-3.4,1.4,-11.14,0.15,-5.95,0,0,0,-9.75,-0.08,-0.97,19.1379675865173
,0,0.39,0.61,-0.36,0.59,-1.2,-3.16,1.37,-10.71,-0.15,-6.34,0,0,0,-9.79,0.19,-0.36,19.1558377742767
,0,0.38,0.59,-0.36,0.62,-1.3,-2.81,1.28,-10.56,-0.71,-6.82,0,0,0,-9.79,0.44,0.19,19.1739845275879
,0,0.37,0.58,-0.35,0.63,-1.27,-2.62,1.21,-10.75,-0.94,-6.83,0,0,0,-9.78,0.55,0.45,19.1884078979492
,0,0.36,0.57,-0.35,0.65,-1.07,-2.18,1.05,-9.51,-0.79,-8.37,0,0,0,-9.73,0.74,0.9,19.20592212677
,0,0.36,0.56,-0.34,0.67,-0.87,-1.52,0.78,-7.82,-1.07,-9.11,0,0,0,-9.68,0.88,1.23,19.2232782840729
,0,0.35,0.55,-0.34,0.67,-0.7,-1.12,0.63,-6.37,-1.78,-9.61,0,0,0,-9.66,0.93,1.34,19.2380836009979
,0,0.35,0.55,-0.34,0.68,-0.45,-0.18,0.3,-6.21,-1.78,-9.34,0,0,0,-9.65,0.99,1.43,19.2560300827026
,0,0.35,0.56,-0.33,0.68,-0.3,0.68,-0.03,-7.14,-1.04,-8.09,0,0,0,-9.66,0.99,1.35,19.2737240791321
,0,0.35,0.56,-0.33,0.67,-0.35,1.05,-0.18,-8.73,0.19,-6.5,0,0,0,-9.67,0.97,1.25,19.2886292934418
,0,0.35,0.57,-0.33,0.67,-0.28,1.16,-0.41,-14.53,-0.72,4.34,0,0,0,-9.71,0.88,1.03,19.306229352951
,0,0.35,0.58,-0.33,0.66,0.3,0.82,-0.11,-12.56,0.27,1.65,0,0,0,-9.73,0.86,0.86,19.3236765861511
,0,0.35,0.58,-0.33,0.66,-0.1,0.88,-0.22,-11.64,1.51,-0.98,0,0,0,-9.73,0.83,0.78,19.3383066654205
,0,0.35,0.59,-0.32,0.65,-0.52,1.12,-0.37,-9.98,-0.35,-1.54,0,0,0,-9.75,0.76,0.6,19.3563554286957
,0,0.35,0.6,-0.32,0.65,-0.58,1.33,-0.33,-9.79,0.96,-1.92,0,0,0,-9.77,0.69,0.36,19.3741648197174
,0,0.35,0.61,-0.31,0.64,-0.75,1.31,-0.27,-9.72,1.48,-2.54,0,0,0,-9.78,0.66,0.24,19.3886151313782
,0,0.34,0.62,-0.3,0.64,-1.05,1.15,-0.21,-9.84,1.15,-2.87,0,0,0,-9.78,0.61,0.02,19.4062685966492
,0,0.34,0.63,-0.29,0.64,-1.15,1.01,-0.2,-10.53,0.31,-1.3,0,0,0,-9.78,0.58,-0.15,19.4239959716797
,0,0.34,0.63,-0.29,0.63,-0.94,0.89,-0.13,-10.35,0.04,-1.14,0,0,0,-9.78,0.57,-0.23,19.4387938976288
,0,0.34,0.64,-0.29,0.63,-0.19,0.74,0.03,-10.05,-1.33,-1.65,0,0,0,-9.78,0.56,-0.37,19.4565916061401
,0,0.34,0.64,-0.29,0.63,0.42,0.72,0.01,-9.79,-0.15,-0.19,0,0,0,-9.77,0.57,-0.51,19.4736559391022
,0,0.34,0.64,-0.29,0.62,0.71,0.76,0.03,-8.89,2.02,-0.5,0,0,0,-9.77,0.57,-0.59,19.4886367321014
,0,0.35,0.65,-0.29,0.62,0.39,0.85,-0.03,-9.3,2.95,-1.91,0,0,0,-9.76,0.56,-0.75,19.5067691802979
,0,0.35,0.65,-0.28,0.61,-0.25,0.9,-0.05,-9.66,1.34,-2.2,0,0,0,-9.74,0.55,-0.92,19.5241620540619
,0,0.35,0.66,-0.28,0.61,-0.4,0.91,-0.1,-9.64,2.12,-2.05,0,0,0,-9.73,0.55,-1.01,19.5388345718384
,0,0.35,0.66,-0.28,0.6,-0.49,0.83,-0.12,-9.44,0.66,-2.43,0,0,0,-9.72,0.53,-1.17,19.5573649406433
,0,0.35,0.67,-0.27,0.6,-0.27,0.78,-0.14,-10.02,0.95,-2.29,0,0,0,-9.7,0.52,-1.31,19.5749733448029
,0,0.35,0.67,-0.27,0.6,-0.25,0.76,-0.17,-9.96,0.99,-2.2,0,0,0,-9.69,0.5,-1.38,19.5896191596985
,0,0.35,0.68,-0.27,0.59,-0.46,0.71,-0.19,-9.66,1.7,-2.49,0,0,0,-9.67,0.48,-1.51,19.607590675354
,0,0.34,0.68,-0.26,0.59,-0.67,0.66,-0.13,-10.11,0.29,-2.17,0,0,0,-9.65,0.47,-1.63,19.6246738433838
,0,0.34,0.69,-0.26,0.59,-0.65,0.62,-0.11,-10.19,-0.23,-1.97,0,0,0,-9.64,0.47,-1.69,19.6395442485809
,0,0.34,0.69,-0.25,0.59,-0.26,0.55,-0.09,-10.12,-0.69,-2.34,0,0,0,-9.62,0.46,-1.79,19.6583054065704
,0,0.34,0.69,-0.25,0.58,0.16,0.47,-0.05,-9.86,0.64,-2.03,0,0,0,-9.61,0.45,-1.88,19.6754128932953
,0,0.34,0.69,-0.25,0.58,0.18,0.41,-0.04,-9.66,0.7,-2.06,0,0,0,-9.6,0.44,-1.92,19.6895518302917
,0,0.34,0.7,-0.25,0.58,0.22,0.39,-0.01,-9.3,1.4,-2.69,0,0,0,-9.58,0.43,-2,19.7087988853455
,0,0.34,0.7,-0.25,0.58,-0.03,0.37,-0.01,-9.14,1.28,-2.82,0,0,0,-9.57,0.43,-2.07,19.7256536483765
,0,0.34,0.7,-0.25,0.57,-0.14,0.35,-0.01,-8.92,0.71,-3.32,0,0,0,-9.56,0.43,-2.1,19.7407977581024
,0,0.34,0.7,-0.25,0.57,-0.19,0.34,-0.02,-9.54,0.81,-2.74,0,0,0,-9.55,0.44,-2.16,19.7589166164398
,0,0.34,0.7,-0.25,0.57,-0.13,0.26,-0,-9.67,0.44,-2.25,0,0,0,-9.54,0.44,-2.21,19.7773175239563
,0,0.34,0.7,-0.25,0.57,-0.08,0.24,0.01,-9.51,0.6,-2.48,0,0,0,-9.53,0.44,-2.24,19.7910244464874
,0,0.34,0.71,-0.24,0.57,-0.03,0.26,0.04,-9.78,0.86,-1.95,0,0,0,-9.52,0.45,-2.28,19.8097326755524
,0,0.35,0.71,-0.24,0.57,0.05,0.25,0.06,-9.67,0.86,-1.85,0,0,0,-9.51,0.46,-2.33,19.8263845443726
,0,0.35,0.71,-0.24,0.56,0.09,0.25,0.07,-9.52,0.39,-1.9,0,0,0,-9.5,0.47,-2.35,19.8410768508911
,0,0.35,0.71,-0.24,0.56,0.27,0.31,0.04,-9.47,0.97,-2.07,0,0,0,-9.49,0.46,-2.41,19.8596835136414
,0,0.35,0.71,-0.24,0.56,0.32,0.38,0,-9.4,1.65,-2.25,0,0,0,-9.47,0.45,-2.48,19.8763132095337
,0,0.35,0.71,-0.25,0.56,0.28,0.44,-0.03,-9.34,1.87,-1.96,0,0,0,-9.46,0.44,-2.52,19.8913700580597
,0,0.35,0.71,-0.25,0.55,0.21,0.58,-0.11,-9.34,1.66,-2.04,0,0,0,-9.43,0.41,-2.62,19.9099323749542
,0,0.36,0.72,-0.25,0.55,0.18,0.69,-0.2,-9.39,1.51,-2.57,0,0,0,-9.4,0.37,-2.74,19.9266633987427
,0,0.36,0.72,-0.24,0.54,0.11,0.75,-0.24,-9.8,1.16,-2.57,0,0,0,-9.38,0.35,-2.81,19.9416012763977
,0,0.36,0.72,-0.24,0.54,0.17,0.83,-0.28,-10.67,0.6,-1.65,0,0,0,-9.34,0.29,-2.96,19.960667848587
,0,0.36,0.73,-0.24,0.53,0.3,0.89,-0.3,-10.41,0.08,-2.63,0,0,0,-9.29,0.22,-3.12,19.9770038127899
,0,0.36,0.73,-0.25,0.52,0.4,0.94,-0.32,-10.14,-0.17,-2.79,0,0,0,-9.26,0.18,-3.2,19.9917855262756
,0,0.36,0.74,-0.25,0.52,0.59,1.05,-0.42,-10.38,1.17,-2.33,0,0,0,-9.2,0.08,-3.39,20.0105690956116
,0,0.36,0.74,-0.25,0.5,0.66,1.11,-0.45,-10.47,1.91,-2.92,0,0,0,-9.12,-0.04,-3.58,20.0269722938538
,0,0.37,0.75,-0.25,0.49,0.63,1.16,-0.47,-10.54,1.6,-3.22,0,0,0,-9.04,-0.17,-3.79,20.0418157577515
,0,0.37,0.75,-0.26,0.49,0.88,1.24,-0.52,-11.66,0.71,-2.25,0,0,0,-8.99,-0.25,-3.9,20.0606396198273
,0,0.37,0.76,-0.26,0.47,1.05,1.38,-0.54,-12.46,-0.46,-0.98,0,0,0,-8.88,-0.42,-4.12,20.0770139694214
,0,0.38,0.76,-0.27,0.45,1.18,1.45,-0.57,-12.72,-0.69,-0.45,0,0,0,-8.76,-0.62,-4.36,20.0917298793793
,0,0.38,0.76,-0.27,0.44,1.51,1.57,-0.61,-12.3,-0.72,-0.96,0,0,0,-8.68,-0.74,-4.48,20.1104447841644
,0,0.39,0.77,-0.28,0.42,1.66,1.72,-0.67,-13.42,-0.29,-0.22,0,0,0,-8.52,-0.99,-4.73,20.1272284984589
,0,0.39,0.77,-0.29,0.4,1.79,1.77,-0.71,-13.3,-0.36,-0.21,0,0,0,-8.34,-1.28,-4.99,20.1419603824615
,0,0.4,0.78,-0.3,0.39,2.02,1.87,-0.7,-11.87,1.76,-1.68,0,0,0,-8.24,-1.44,-5.11,20.1606330871582
,0,0.41,0.78,-0.31,0.37,1.98,1.96,-0.79,-11.73,1.8,-4.88,0,0,0,-8.02,-1.76,-5.35,20.1772589683533
,0,0.41,0.79,-0.31,0.34,1.7,1.99,-0.84,-11.99,1.01,-4.98,0,0,0,-7.77,-2.06,-5.6,20.1923286914825
,0,0.42,0.79,-0.32,0.32,1.41,1.96,-0.82,-10.76,0.12,-4.87,0,0,0,-7.65,-2.19,-5.72,20.2119112014771
,0,0.42,0.79,-0.32,0.31,1.03,1.91,-0.77,-8.6,0.11,-9.29,0,0,0,-7.4,-2.45,-5.94,20.2278165817261
,0,0.42,0.8,-0.32,0.29,0.42,1.91,-0.71,-8.75,0.41,-8.69,0,0,0,-7.15,-2.57,-6.19,20.2427079677582
,0,0.42,0.81,-0.31,0.28,-0.08,1.55,-0.42,-8.29,0.09,-1.98,0,0,0,-7.04,-2.59,-6.3,20.2616274356842
,0,0.42,0.81,-0.31,0.28,-0.21,0.87,-0.09,-7.38,-0.48,0.22,0,0,0,-6.91,-2.59,-6.45,20.2785382270813
,0,0.42,0.81,-0.3,0.27,-0.05,0.47,0.09,-6.31,0.5,-0.83,0,0,0,-6.88,-2.56,-6.5,20.2932107448578
,0,0.42,0.81,-0.31,0.28,0.09,-0.25,0.36,-5.91,-0.57,-0.09,0,0,0,-6.9,-2.54,-6.48,20.3113520145416
,0,0.43,0.8,-0.31,0.28,0.39,-0.91,0.5,-5.43,-0.72,-1.61,0,0,0,-7.02,-2.52,-6.36,20.3283557891846
,0,0.43,0.79,-0.32,0.29,0.39,-1.21,0.54,-5.37,-0.81,-1.7,0,0,0,-7.21,-2.49,-6.15,20.3438262939453
,0,0.43,0.79,-0.32,0.31,0.32,-1.72,0.62,-5.34,-0.55,-2.26,0,0,0,-7.32,-2.46,-6.02,20.361852645874
,0,0.43,0.78,-0.33,0.32,0.04,-2.17,0.81,-5.74,0.16,-2.55,0,0,0,-7.59,-2.37,-5.72,20.3778030872345
,0,0.43,0.77,-0.33,0.34,-0.14,-2.38,0.93,-6.06,0.11,-2.37,0,0,0,-7.9,-2.2,-5.36,20.3928422927856
,0,0.42,0.76,-0.34,0.37,-0.41,-2.74,1.14,-6.88,-0.32,-2.51,0,0,0,-8.07,-2.09,-5.15,20.4118354320526
,0,0.42,0.75,-0.34,0.38,-0.49,-3.04,1.31,-8.27,-0.64,-3.51,0,0,0,-8.4,-1.84,-4.7,20.4287281036377
,0,0.42,0.73,-0.34,0.41,-0.53,-3.16,1.37,-9.4,-1.03,-3.52,0,0,0,-8.72,-1.56,-4.19,20.444108247757
,0,0.42,0.72,-0.35,0.44,-0.56,-3.32,1.46,-9.88,-1.25,-3.63,0,0,0,-8.87,-1.42,-3.91,20.4625022411346
,0,0.41,0.71,-0.35,0.46,-0.56,-3.47,1.39,-10.1,-1.76,-4.29,0,0,0,-9.15,-1.13,-3.32,20.4785301685333
,0,0.41,0.69,-0.35,0.49,-0.62,-3.53,1.35,-11.33,-0.93,-4.33,0,0,0,-9.38,-0.85,-2.7,20.4936048984528
,0,0.4,0.67,-0.36,0.52,-0.68,-3.67,1.36,-11.58,-0.75,-4.81,0,0,0,-9.48,-0.71,-2.37,20.5120732784271
,0,0.4,0.66,-0.36,0.53,-0.81,-3.66,1.36,-11.23,-0.22,-6.05,0,0,0,-9.64,-0.43,-1.69,20.5288701057434
,0,0.39,0.63,-0.36,0.57,-0.99,-3.61,1.36,-10.9,0.39,-6.4,0,0,0,-9.75,-0.15,-1.03,20.5444145202637
,0,0.37,0.62,-0.35,0.6,-1.48,-3.43,1.3,-11.12,0.12,-6.33,0,0,0,-9.78,-0.01,-0.71,20.5625612735748
,0,0.37,0.61,-0.35,0.61,-1.75,-3.19,1.16,-11.11,-0.34,-7.3,0,0,0,-9.8,0.22,-0.08,20.5788810253143
,0,0.35,0.59,-0.34,0.64,-1.76,-3,1.08,-10.6,-0.86,-8.05,0,0,0,-9.78,0.41,0.46,20.594233751297
,0,0.34,0.58,-0.34,0.66,-1.58,-2.48,0.89,-10.01,-0.4,-8.72,0,0,0,-9.76,0.48,0.7,20.6128492355347
,0,0.34,0.58,-0.33,0.67,-1.32,-1.77,0.73,-8.79,-0.51,-9.55,0,0,0,-9.72,0.6,1.09,20.6291210651398
,0,0.33,0.57,-0.33,0.68,-1.15,-1.37,0.65,-6.55,-0.88,-10.64,0,0,0,-9.69,0.69,1.32,20.6437981128693
,0,0.33,0.57,-0.32,0.68,-0.63,-0.41,0.49,-5.9,-1.29,-11.32,0,0,0,-9.68,0.73,1.36,20.6621165275574
,0,0.33,0.57,-0.32,0.68,-0.19,0.58,0.16,-6.22,-2.3,-10.32,0,0,0,-9.68,0.77,1.3,20.6790070533752
,0,0.33,0.58,-0.32,0.68,-0.25,0.97,-0.06,-9.77,0.1,-3.77,0,0,0,-9.71,0.73,1.1,20.6941537857056
,0,0.33,0.59,-0.32,0.67,-0.37,1.18,-0.37,-15.85,-2.92,14.75,0,0,0,-9.73,0.69,0.99,20.7124586105347
,0,0.33,0.59,-0.32,0.67,0.68,0.71,0.04,-13.98,-0.5,2.03,0,0,0,-9.74,0.7,0.84,20.7289655208588
,0,0.33,0.59,-0.31,0.66,0.45,0.71,-0.02,-11.14,-1.08,-2.43,0,0,0,-9.75,0.68,0.7,20.7442111968994
,0,0.33,0.6,-0.31,0.66,-0.52,0.91,-0.22,-10.44,-1.63,-0.97,0,0,0,-9.76,0.65,0.62,20.7626543045044
,0,0.33,0.61,-0.31,0.65,-0.44,1.09,-0.18,-10.64,-0.88,-1.87,0,0,0,-9.77,0.61,0.42,20.7792744636536
,0,0.33,0.61,-0.3,0.65,-0.46,1.11,-0.13,-10.86,0.46,-1.71,0,0,0,-9.78,0.59,0.22,20.794163942337
,0,0.33,0.62,-0.3,0.64,-0.44,0.92,-0.04,-10.16,0.68,-1.89,0,0,0,-9.78,0.58,0.06,20.8127434253693
,0,0.33,0.62,-0.29,0.64,-0.38,0.74,-0.01,-10.11,0.85,-1.55,0,0,0,-9.78,0.58,0,20.8297259807587
,0,0.33,0.63,-0.29,0.64,-0.2,0.64,-0.01,-10.12,2.05,-0.66,0,0,0,-9.78,0.58,-0.12,20.8448054790497
,0,0.33,0.63,-0.29,0.64,-0.07,0.52,-0,-9.74,1.65,-1.26,0,0,0,-9.78,0.58,-0.17,20.8628764152527
,0,0.33,0.63,-0.29,0.63,-0.03,0.63,0.01,-8.56,1.72,-1.41,0,0,0,-9.78,0.58,-0.28,20.8797311782837
,0,0.34,0.64,-0.29,0.63,0.03,0.69,-0.01,-8.99,0.59,0.29,0,0,0,-9.78,0.58,-0.41,20.8945934772491
,0,0.34,0.64,-0.28,0.63,0.2,0.7,-0.02,-9.55,1.1,0.24,0,0,0,-9.77,0.58,-0.55,20.9127750396729
,0,0.34,0.64,-0.28,0.62,0.19,0.69,-0.01,-10.12,1.55,-0.84,0,0,0,-9.76,0.58,-0.61,20.9299521446228
,0,0.34,0.65,-0.28,0.62,-0.04,0.69,0,-9.9,2.05,-0.92,0,0,0,-9.76,0.58,-0.74,20.9442286491394
,0,0.34,0.65,-0.28,0.61,-0.06,0.74,-0.01,-9.78,2.15,-1.22,0,0,0,-9.74,0.58,-0.88,20.9630694389343
