Time,header.seq,header.stamp.secs,header.stamp.nsecs,header.frame_id,time_stamp,quat_x,quat_y,quat_z,quat_w,gyro_x,gyro_y,gyro_z,accel_x,accel_y,accel_z,euler_x,euler_y,euler_z,gravity_x,gravity_y,gravity_z
1738248569.2055569,103871,0,0,,0.0,-0.43,0.3,0.73,0.44,-0.84,7.48,-1.19,-10.02,1.51,13.66,0.0,0.0,0.0,-8.69,0.63,4.49
1738248569.2224398,103872,0,0,,0.0,-0.49,0.32,0.69,0.42,-0.68,8.2,-1.26,-10.65,6.82,15.54,0.0,0.0,0.0,-9.31,0.34,3.03
1738248569.240969,103873,0,0,,0.0,-0.55,0.35,0.64,0.4,-0.43,8.83,-1.58,-10.07,6.04,17.94,0.0,0.0,0.0,-9.54,0.19,2.23
1738248569.2561758,103874,0,0,,0.0,-0.58,0.36,0.62,0.39,0.16,7.36,-1.44,-14.45,8.88,19.01,0.0,0.0,0.0,-9.78,-0.08,0.68
1738248569.2718368,103875,0,0,,0.0,-0.6,0.37,0.6,0.39,0.37,4.13,-1.12,-7.29,10.41,21.18,0.0,0.0,0.0,-9.8,-0.28,0.16
1738248569.2911701,103876,0,0,,0.0,-0.6,0.36,0.6,0.39,-0.23,-0.4,-0.77,-0.24,10.98,14.02,0.0,0.0,0.0,-9.79,-0.35,0.2
1738248569.305618,103877,0,0,,0.0,-0.6,0.35,0.6,0.39,-1.06,-0.66,-0.34,-3.72,2.39,11.03,0.0,0.0,0.0,-9.79,-0.44,0.3
1738248569.3221142,103878,0,0,,0.0,-0.59,0.34,0.61,0.39,-0.52,-1.23,-0.16,-3.28,1.09,10.78,0.0,0.0,0.0,-9.77,-0.47,0.57
1738248569.3413672,103879,0,0,,0.0,-0.58,0.33,0.62,0.41,-0.03,-2.15,-0.33,-4.53,-1.03,11.18,0.0,0.0,0.0,-9.76,-0.5,0.78
1738248569.3559976,103880,0,0,,0.0,-0.57,0.32,0.63,0.41,0.58,-3.46,-0.86,-4.27,0.1,9.17,0.0,0.0,0.0,-9.68,-0.63,1.37
1738248569.3721638,103881,0,0,,0.0,-0.54,0.31,0.65,0.44,0.75,-4.01,-1.05,-4.54,1.77,6.8,0.0,0.0,0.0,-9.53,-0.8,2.16
1738248569.39153,103882,0,0,,0.0,-0.51,0.29,0.66,0.46,0.89,-4.59,-1.04,-4.48,2.04,6.26,0.0,0.0,0.0,-9.41,-0.88,2.59
1738248569.406025,103883,0,0,,0.0,-0.5,0.28,0.67,0.47,0.91,-4.92,-0.6,-4.37,1.35,5.59,0.0,0.0,0.0,-9.11,-0.95,3.48
1738248569.422042,103884,0,0,,0.0,-0.46,0.26,0.69,0.49,0.99,-4.97,-0.3,-5.97,1.26,7.13,0.0,0.0,0.0,-8.73,-0.9,4.36
1738248569.441105,103885,0,0,,0.0,-0.42,0.24,0.71,0.51,1.01,-5.07,0.31,-6.76,0.87,7.79,0.0,0.0,0.0,-8.51,-0.83,4.79
1738248569.4558752,103886,0,0,,0.0,-0.4,0.23,0.73,0.51,0.93,-5.31,0.69,-7.85,0.92,8.08,0.0,0.0,0.0,-7.99,-0.64,5.64
1738248569.4726439,103887,0,0,,0.0,-0.35,0.22,0.75,0.52,0.87,-5.37,0.87,-8.31,1.92,7.96,0.0,0.0,0.0,-7.37,-0.39,6.45
1738248569.4913588,103888,0,0,,0.0,-0.31,0.2,0.77,0.52,0.76,-5.33,1.53,-9.16,1.77,7.82,0.0,0.0,0.0,-7.03,-0.23,6.82
1738248569.506013,103889,0,0,,0.0,-0.28,0.19,0.78,0.52,0.71,-4.99,2.21,-9.98,0.7,8.47,0.0,0.0,0.0,-6.32,0.12,7.48
1738248569.5222268,103890,0,0,,0.0,-0.24,0.18,0.81,0.51,0.72,-4.72,2.43,-14.84,-0.3,13.25,0.0,0.0,0.0,-5.62,0.53,8.01
1738248569.5418568,103891,0,0,,0.0,-0.2,0.18,0.83,0.5,0.88,-4.38,2.67,-15.66,-0.68,12.77,0.0,0.0,0.0,-5.26,0.74,8.24
1738248569.5565503,103892,0,0,,0.0,-0.17,0.17,0.84,0.49,0.83,-4.38,2.42,-16.37,-1.4,12.04,0.0,0.0,0.0,-4.49,1.12,8.64
1738248569.5728111,103893,0,0,,0.0,-0.13,0.16,0.85,0.48,0.74,-4.3,2.15,-17.85,-3.83,11.07,0.0,0.0,0.0,-3.71,1.4,8.96
1738248569.5915725,103894,0,0,,0.0,-0.09,0.15,0.86,0.48,0.76,-4.35,1.57,-17.06,-5.48,9.54,0.0,0.0,0.0,-3.3,1.52,9.1
1738248569.6061528,103895,0,0,,0.0,-0.07,0.14,0.86,0.48,1.01,-4.09,0.57,-15.45,-4.3,5.63,0.0,0.0,0.0,-2.53,1.74,9.31
1738248569.6228206,103896,0,0,,0.0,-0.04,0.13,0.86,0.49,1.06,-3.79,0.11,-14.4,-1.91,2.14,0.0,0.0,0.0,-1.88,1.93,9.42
1738248569.641889,103897,0,0,,0.0,-0.01,0.13,0.86,0.49,0.95,-2.88,-0.36,-14.17,-1.19,0.46,0.0,0.0,0.0,-1.62,2.01,9.45
1738248569.6564665,103898,0,0,,0.0,-0.0,0.13,0.86,0.49,0.85,-1.58,-0.34,-14.94,-0.94,-2.19,0.0,0.0,0.0,-1.29,2.16,9.47
1738248569.672678,103899,0,0,,0.0,0.01,0.13,0.86,0.5,0.76,-0.9,-0.23,-19.92,-1.11,2.1,0.0,0.0,0.0,-1.17,2.28,9.46
1738248569.691601,103900,0,0,,0.0,0.01,0.13,0.86,0.49,0.34,-0.27,0.25,-16.42,-2.17,-1.7,0.0,0.0,0.0,-1.14,2.32,9.45
1738248569.7065125,103901,0,0,,0.0,0.01,0.13,0.86,0.49,-0.5,0.44,0.37,-15.22,-2.42,-2.58,0.0,0.0,0.0,-1.16,2.26,9.46
1738248569.7228143,103902,0,0,,0.0,-0.01,0.13,0.86,0.49,-0.68,0.99,0.41,-15.45,-0.66,-2.9,0.0,0.0,0.0,-1.38,2.11,9.47
1738248569.74217,103903,0,0,,0.0,-0.03,0.13,0.87,0.48,-1.22,1.74,0.32,-1.45,-1.46,8.68,0.0,0.0,0.0,-1.53,2.01,9.47
1738248569.7567363,103904,0,0,,0.0,-0.04,0.13,0.86,0.49,-0.71,3.01,-0.99,-17.06,-3.75,9.68,0.0,0.0,0.0,-1.96,1.85,9.42
1738248569.773301,103905,0,0,,0.0,-0.08,0.14,0.86,0.49,-1.42,3.9,-1.02,-14.85,3.63,7.38,0.0,0.0,0.0,-2.61,1.65,9.3
1738248569.7918444,103906,0,0,,0.0,-0.09,0.15,0.86,0.48,0.33,2.17,0.11,-8.38,3.99,3.92,0.0,0.0,0.0,-2.8,1.68,9.24
1738248569.8063555,103907,0,0,,0.0,-0.1,0.16,0.86,0.48,-0.05,2.1,-0.24,-7.3,-1.88,13.16,0.0,0.0,0.0,-3.18,1.67,9.12
1738248569.8226092,103908,0,0,,0.0,-0.11,0.17,0.85,0.48,0.05,1.63,-0.14,-1.53,2.91,9.44,0.0,0.0,0.0,-3.45,1.7,9.01
1738248569.8415582,103909,0,0,,0.0,-0.12,0.17,0.85,0.48,0.32,1.44,-0.11,-7.44,4.81,9.65,0.0,0.0,0.0,-3.58,1.72,8.96
1738248569.855964,103910,0,0,,0.0,-0.13,0.18,0.85,0.48,-0.03,1.04,0.05,-5.58,2.64,11.32,0.0,0.0,0.0,-3.76,1.74,8.88
1738248569.8729756,103911,0,0,,0.0,-0.14,0.18,0.85,0.48,-0.16,1.0,-0.08,-4.82,2.32,9.38,0.0,0.0,0.0,-3.92,1.7,8.82
1738248569.8920906,103912,0,0,,0.0,-0.14,0.18,0.85,0.48,-0.36,0.87,-0.25,-4.62,1.91,10.59,0.0,0.0,0.0,-4.0,1.66,8.79
1738248569.9062328,103913,0,0,,0.0,-0.15,0.18,0.85,0.48,-0.29,0.7,-0.22,-5.99,0.46,8.98,0.0,0.0,0.0,-4.13,1.59,8.74
1738248569.9224174,103914,0,0,,0.0,-0.15,0.18,0.85,0.48,-0.14,0.59,-0.14,-5.74,0.62,9.59,0.0,0.0,0.0,-4.23,1.57,8.7
1738248569.9416084,103915,0,0,,0.0,-0.15,0.18,0.85,0.48,0.17,0.36,0.09,-4.7,0.99,9.68,0.0,0.0,0.0,-4.25,1.59,8.68
1738248569.9564278,103916,0,0,,0.0,-0.15,0.19,0.85,0.48,0.24,0.26,0.14,-4.48,2.03,9.42,0.0,0.0,0.0,-4.3,1.64,8.65
1738248569.972738,103917,0,0,,0.0,-0.15,0.19,0.85,0.48,0.26,0.16,0.15,-4.98,1.97,8.51,0.0,0.0,0.0,-4.32,1.7,8.63
1738248569.991981,103918,0,0,,0.0,-0.15,0.19,0.85,0.47,0.23,0.09,0.13,-4.23,2.34,8.82,0.0,0.0,0.0,-4.33,1.72,8.62
1738248570.0062308,103919,0,0,,0.0,-0.15,0.19,0.85,0.47,0.15,0.03,0.1,-4.59,1.9,8.34,0.0,0.0,0.0,-4.33,1.76,8.61
1738248570.022861,103920,0,0,,0.0,-0.15,0.19,0.85,0.47,0.11,0.05,0.08,-4.54,1.56,8.51,0.0,0.0,0.0,-4.33,1.78,8.61
1738248570.0423405,103921,0,0,,0.0,-0.15,0.19,0.85,0.47,0.08,0.06,0.07,-4.66,1.59,8.4,0.0,0.0,0.0,-4.34,1.79,8.6
1738248570.0563807,103922,0,0,,0.0,-0.15,0.19,0.85,0.47,0.01,0.05,0.03,-3.74,1.9,8.9,0.0,0.0,0.0,-4.34,1.8,8.6
1738248570.0728273,103923,0,0,,0.0,-0.15,0.19,0.85,0.47,-0.0,0.03,0.03,-4.77,1.76,8.39,0.0,0.0,0.0,-4.35,1.8,8.59
1738248570.0921366,103924,0,0,,0.0,-0.15,0.2,0.85,0.47,-0.01,0.04,0.02,-4.04,1.93,8.82,0.0,0.0,0.0,-4.36,1.8,8.59
1738248570.1067169,103925,0,0,,0.0,-0.15,0.2,0.85,0.47,0.01,0.05,0.02,-4.97,1.35,8.39,0.0,0.0,0.0,-4.36,1.8,8.59
1738248570.1233249,103926,0,0,,0.0,-0.15,0.2,0.85,0.47,0.03,0.04,0.02,-4.36,1.79,8.73,0.0,0.0,0.0,-4.36,1.81,8.59
1738248570.1419046,103927,0,0,,0.0,-0.15,0.2,0.85,0.47,0.07,0.02,0.04,-4.9,1.63,8.41,0.0,0.0,0.0,-4.36,1.82,8.58
1738248570.1568158,103928,0,0,,0.0,-0.15,0.2,0.85,0.47,0.1,0.01,0.07,-4.23,1.53,8.51,0.0,0.0,0.0,-4.36,1.84,8.58
1738248570.1732118,103929,0,0,,0.0,-0.15,0.2,0.85,0.47,0.1,0.05,0.07,-5.51,1.63,8.41,0.0,0.0,0.0,-4.37,1.87,8.57
1738248570.1916437,103930,0,0,,0.0,-0.15,0.2,0.85,0.47,0.13,0.02,0.08,-4.49,1.89,8.57,0.0,0.0,0.0,-4.37,1.88,8.57
1738248570.2062798,103931,0,0,,0.0,-0.15,0.2,0.85,0.47,0.14,0.02,0.06,-4.75,1.92,8.44,0.0,0.0,0.0,-4.37,1.91,8.56
1738248570.223119,103932,0,0,,0.0,-0.15,0.2,0.85,0.47,0.13,0.03,0.05,-4.75,1.89,8.35,0.0,0.0,0.0,-4.37,1.94,8.55
1738248570.2418973,103933,0,0,,0.0,-0.15,0.2,0.85,0.47,0.13,0.02,0.02,-4.59,1.95,8.4,0.0,0.0,0.0,-4.37,1.95,8.55
1738248570.2564535,103934,0,0,,0.0,-0.15,0.2,0.85,0.47,0.12,0.03,-0.01,-4.29,2.09,8.62,0.0,0.0,0.0,-4.38,1.97,8.54
1738248570.273646,103935,0,0,,0.0,-0.15,0.2,0.84,0.47,0.12,0.04,-0.03,-4.29,2.09,8.76,0.0,0.0,0.0,-4.39,1.98,8.54
1738248570.2925043,103936,0,0,,0.0,-0.15,0.2,0.84,0.47,0.1,0.07,-0.06,-3.85,2.32,8.94,0.0,0.0,0.0,-4.39,1.99,8.53
1738248570.3068566,103937,0,0,,0.0,-0.15,0.21,0.84,0.47,0.08,0.15,-0.09,-5.06,1.85,8.66,0.0,0.0,0.0,-4.42,2.0,8.52
1738248570.3237045,103938,0,0,,0.0,-0.15,0.21,0.84,0.47,0.07,0.2,-0.12,-4.11,2.08,8.47,0.0,0.0,0.0,-4.46,2.0,8.49
1738248570.342261,103939,0,0,,0.0,-0.16,0.21,0.84,0.47,0.07,0.35,-0.16,-4.5,1.73,8.34,0.0,0.0,0.0,-4.49,2.0,8.48
1738248570.3569145,103940,0,0,,0.0,-0.16,0.21,0.84,0.47,0.09,0.52,-0.17,-4.31,1.93,8.8,0.0,0.0,0.0,-4.57,1.99,8.43
1738248570.373559,103941,0,0,,0.0,-0.16,0.21,0.84,0.47,0.09,0.63,-0.17,-5.15,1.75,8.15,0.0,0.0,0.0,-4.69,1.99,8.37
1738248570.3924446,103942,0,0,,0.0,-0.17,0.22,0.84,0.47,0.09,0.81,-0.18,-3.82,2.09,8.45,0.0,0.0,0.0,-4.76,1.99,8.33
1738248570.407021,103943,0,0,,0.0,-0.18,0.22,0.83,0.47,0.06,1.09,-0.26,-5.09,2.06,8.04,0.0,0.0,0.0,-4.93,1.98,8.23
1738248570.424206,103944,0,0,,0.0,-0.19,0.23,0.83,0.47,0.03,1.28,-0.34,-2.59,2.37,9.06,0.0,0.0,0.0,-5.17,1.94,8.09
1738248570.4429724,103945,0,0,,0.0,-0.21,0.23,0.82,0.47,-0.13,1.81,-0.47,-5.83,2.92,8.94,0.0,0.0,0.0,-5.32,1.91,8.0
1738248570.4574895,103946,0,0,,0.0,-0.22,0.24,0.82,0.47,-0.22,2.29,-0.65,-5.49,2.29,9.8,0.0,0.0,0.0,-5.66,1.82,7.79
1738248570.474346,103947,0,0,,0.0,-0.24,0.25,0.81,0.47,-0.35,2.72,-0.79,-7.59,1.69,7.32,0.0,0.0,0.0,-6.12,1.67,7.47
1738248570.493394,103948,0,0,,0.0,-0.27,0.26,0.8,0.47,-0.41,3.34,-0.97,-3.01,2.91,8.95,0.0,0.0,0.0,-6.37,1.58,7.28
1738248570.507474,103949,0,0,,0.0,-0.29,0.26,0.79,0.47,-0.43,3.97,-1.2,-5.88,2.26,7.38,0.0,0.0,0.0,-6.92,1.37,6.8
1738248570.5247722,103950,0,0,,0.0,-0.33,0.27,0.77,0.47,-0.44,4.39,-1.43,-6.5,2.4,7.98,0.0,0.0,0.0,-7.54,1.09,6.16
1738248570.5430026,103951,0,0,,0.0,-0.39,0.29,0.75,0.46,-0.72,5.73,-1.68,-8.94,-0.59,12.19,0.0,0.0,0.0,-7.89,0.93,5.74
1738248570.5579453,103952,0,0,,0.0,-0.42,0.3,0.73,0.45,-0.95,7.63,-1.15,-11.59,1.06,13.29,0.0,0.0,0.0,-8.64,0.64,4.58
1738248570.5752995,103953,0,0,,0.0,-0.48,0.32,0.69,0.43,-0.97,7.98,-1.36,-10.35,5.05,13.44,0.0,0.0,0.0,-9.26,0.31,3.2
1738248570.5932915,103954,0,0,,0.0,-0.55,0.34,0.65,0.41,-1.18,8.46,-1.69,-10.53,5.81,17.84,0.0,0.0,0.0,-9.49,0.12,2.43
1738248570.6078897,103955,0,0,,0.0,-0.57,0.35,0.63,0.4,-0.85,6.79,-1.75,-15.34,4.45,19.14,0.0,0.0,0.0,-9.75,-0.23,0.99
1738248570.6256452,103956,0,0,,0.0,-0.59,0.35,0.61,0.4,-0.08,3.63,-1.39,-17.07,5.23,22.35,0.0,0.0,0.0,-9.77,-0.48,0.58
1738248570.643515,103957,0,0,,0.0,-0.59,0.34,0.6,0.41,0.67,-0.73,-1.2,0.07,8.47,11.34,0.0,0.0,0.0,-9.76,-0.59,0.66
1738248570.6582725,103958,0,0,,0.0,-0.59,0.34,0.6,0.42,-0.06,-0.72,-1.15,-3.14,3.89,9.85,0.0,0.0,0.0,-9.74,-0.81,0.78
1738248570.6760104,103959,0,0,,0.0,-0.58,0.33,0.61,0.43,0.35,-1.2,-0.83,-3.17,4.36,9.14,0.0,0.0,0.0,-9.7,-0.94,1.04
1738248570.6934865,103960,0,0,,0.0,-0.57,0.32,0.62,0.44,0.4,-1.95,-0.64,-4.69,2.55,10.66,0.0,0.0,0.0,-9.67,-1.0,1.23
1738248570.708,103961,0,0,,0.0,-0.56,0.31,0.62,0.45,0.62,-3.09,-0.48,-3.6,2.52,8.49,0.0,0.0,0.0,-9.58,-1.08,1.76
1738248570.726068,103962,0,0,,0.0,-0.53,0.3,0.64,0.47,0.59,-3.52,-0.41,-3.27,1.65,7.55,0.0,0.0,0.0,-9.42,-1.13,2.44
1738248570.7431636,103963,0,0,,0.0,-0.51,0.28,0.66,0.48,0.62,-3.99,-0.31,-4.55,1.44,7.83,0.0,0.0,0.0,-9.32,-1.14,2.81
1738248570.7582438,103964,0,0,,0.0,-0.49,0.27,0.67,0.49,0.54,-4.47,-0.11,-4.41,0.77,6.9,0.0,0.0,0.0,-9.04,-1.13,3.6
1738248570.7761588,103965,0,0,,0.0,-0.46,0.26,0.69,0.5,0.54,-4.59,0.01,-5.14,0.7,7.17,0.0,0.0,0.0,-8.69,-1.07,4.41
1738248570.7941885,103966,0,0,,0.0,-0.42,0.24,0.71,0.52,0.71,-4.79,0.38,-6.32,0.66,8.03,0.0,0.0,0.0,-8.48,-1.01,4.82
1738248570.8087544,103967,0,0,,0.0,-0.4,0.23,0.72,0.52,0.83,-5.08,0.71,-7.94,1.95,8.75,0.0,0.0,0.0,-7.98,-0.82,5.63
1738248570.8267155,103968,0,0,,0.0,-0.36,0.21,0.74,0.53,0.79,-5.22,0.9,-7.99,2.28,8.63,0.0,0.0,0.0,-7.38,-0.58,6.42
1738248570.844348,103969,0,0,,0.0,-0.31,0.2,0.77,0.53,0.73,-5.32,1.54,-8.75,2.4,8.64,0.0,0.0,0.0,-7.04,-0.43,6.8
1738248570.858592,103970,0,0,,0.0,-0.29,0.19,0.78,0.53,0.7,-5.15,2.16,-9.22,0.69,8.37,0.0,0.0,0.0,-6.33,-0.07,7.48
1738248570.877019,103971,0,0,,0.0,-0.24,0.18,0.8,0.52,0.72,-4.95,2.27,-9.23,-0.49,8.53,0.0,0.0,0.0,-5.61,0.3,8.03
1738248570.8954647,103972,0,0,,0.0,-0.2,0.17,0.82,0.51,1.09,-4.34,2.32,-14.47,-1.21,13.64,0.0,0.0,0.0,-5.26,0.51,8.25
1738248570.9100232,103973,0,0,,0.0,-0.18,0.17,0.83,0.51,1.19,-4.28,2.15,-14.61,-3.05,11.81,0.0,0.0,0.0,-4.53,0.92,8.64
1738248570.9281387,103974,0,0,,0.0,-0.14,0.16,0.84,0.5,1.17,-4.15,1.92,-17.64,-3.0,11.88,0.0,0.0,0.0,-3.79,1.27,8.95
1738248570.9463835,103975,0,0,,0.0,-0.1,0.15,0.85,0.5,1.24,-4.01,1.49,-17.65,-3.69,10.55,0.0,0.0,0.0,-3.05,1.58,9.18
1738248570.9606586,103976,0,0,,0.0,-0.08,0.15,0.85,0.5,1.33,-3.93,0.88,-16.78,-3.5,6.81,0.0,0.0,0.0,-2.68,1.73,9.27
1738248570.9796188,103977,0,0,,0.0,-0.04,0.14,0.86,0.5,1.33,-3.72,0.59,-16.56,-1.8,4.37,0.0,0.0,0.0,-2.01,1.99,9.38
1738248570.998253,103978,0,0,,0.0,-0.01,0.14,0.86,0.5,1.2,-3.21,0.31,-15.82,-1.45,-0.1,0.0,0.0,0.0,-1.45,2.2,9.44
1738248571.0128212,103979,0,0,,0.0,0.0,0.13,0.86,0.5,0.9,-2.3,0.34,-15.79,-1.52,-1.49,0.0,0.0,0.0,-1.23,2.29,9.45
1738248571.0314283,103980,0,0,,0.0,0.02,0.13,0.86,0.5,0.42,-1.12,0.39,-16.19,-2.18,-2.9,0.0,0.0,0.0,-0.95,2.4,9.45
1738248571.0494797,103981,0,0,,0.0,0.02,0.13,0.86,0.49,0.11,-0.52,0.41,-15.94,-2.59,-2.16,0.0,0.0,0.0,-0.89,2.4,9.46
1738248571.064442,103982,0,0,,0.0,0.01,0.13,0.86,0.49,-0.47,0.59,0.4,-15.06,-2.18,-1.67,0.0,0.0,0.0,-1.03,2.3,9.47
1738248571.0832217,103983,0,0,,0.0,0.0,0.13,0.86,0.49,-0.97,1.51,0.33,-12.66,-0.5,1.44,0.0,0.0,0.0,-1.16,2.21,9.48
1738248571.10139,103984,0,0,,0.0,-0.02,0.13,0.87,0.48,-1.25,1.75,0.29,0.75,-1.15,11.67,0.0,0.0,0.0,-1.48,1.99,9.48
1738248571.116212,103985,0,0,,0.0,-0.04,0.13,0.86,0.48,-0.6,1.56,-0.04,-20.62,-8.93,5.19,0.0,0.0,0.0,-1.99,1.82,9.42
1738248571.133966,103986,0,0,,0.0,-0.07,0.14,0.86,0.49,-1.15,3.83,-0.76,-8.08,-3.46,8.68,0.0,0.0,0.0,-2.35,1.7,9.36
1738248571.1518865,103987,0,0,,0.0,-0.08,0.15,0.86,0.48,0.25,2.39,0.44,-2.15,-4.97,14.21,0.0,0.0,0.0,-2.81,1.73,9.23
1738248571.166567,103988,0,0,,0.0,-0.1,0.16,0.86,0.48,0.06,2.3,0.18,-7.5,-2.32,11.75,0.0,0.0,0.0,-3.2,1.75,9.09
1738248571.1854568,103989,0,0,,0.0,-0.11,0.17,0.85,0.48,0.42,1.68,-0.1,-4.26,-0.95,7.05,0.0,0.0,0.0,-3.35,1.78,9.03
1738248571.2020626,103990,0,0,,0.0,-0.12,0.18,0.85,0.48,0.43,1.57,0.1,-8.9,4.98,9.31,0.0,0.0,0.0,-3.62,1.87,8.91
1738248571.2175348,103991,0,0,,0.0,-0.13,0.18,0.85,0.47,-0.08,1.11,-0.06,-4.97,3.94,10.79,0.0,0.0,0.0,-3.82,1.89,8.82
1738248571.235705,103992,0,0,,0.0,-0.14,0.18,0.85,0.47,-0.27,1.06,-0.19,-5.31,2.84,8.07,0.0,0.0,0.0,-3.91,1.86,8.79
1738248571.2523396,103993,0,0,,0.0,-0.14,0.18,0.85,0.47,-0.6,0.84,-0.4,-4.99,1.45,10.27,0.0,0.0,0.0,-4.08,1.74,8.74
1738248571.2681413,103994,0,0,,0.0,-0.15,0.18,0.85,0.47,-0.38,0.62,-0.27,-5.23,-0.4,10.68,0.0,0.0,0.0,-4.2,1.64,8.7
1738248571.2860403,103995,0,0,,0.0,-0.15,0.18,0.85,0.47,-0.17,0.5,-0.13,-5.12,0.94,9.39,0.0,0.0,0.0,-4.25,1.62,8.68
1738248571.3024323,103996,0,0,,0.0,-0.16,0.19,0.85,0.47,0.11,0.35,0.08,-5.45,1.15,9.55,0.0,0.0,0.0,-4.31,1.63,8.65
1738248571.3174036,103997,0,0,,0.0,-0.16,0.19,0.85,0.47,0.21,0.17,0.13,-4.2,1.81,9.19,0.0,0.0,0.0,-4.34,1.67,8.62
1738248571.3360465,103998,0,0,,0.0,-0.16,0.19,0.85,0.47,0.23,0.1,0.14,-5.19,1.92,8.29,0.0,0.0,0.0,-4.35,1.7,8.62
1738248571.3523884,103999,0,0,,0.0,-0.16,0.19,0.85,0.47,0.22,-0.01,0.13,-3.83,2.39,8.61,0.0,0.0,0.0,-4.35,1.75,8.6
1738248571.3675592,104000,0,0,,0.0,-0.15,0.19,0.85,0.47,0.11,0.02,0.08,-4.58,1.76,8.62,0.0,0.0,0.0,-4.35,1.78,8.6
1738248571.3862553,104001,0,0,,0.0,-0.15,0.19,0.85,0.47,0.08,-0.01,0.06,-4.03,1.97,8.54,0.0,0.0,0.0,-4.35,1.79,8.6
1738248571.4024434,104002,0,0,,0.0,-0.15,0.19,0.85,0.47,-0.01,0.01,0.02,-5.43,1.41,8.22,0.0,0.0,0.0,-4.35,1.79,8.6
1738248571.4179714,104003,0,0,,0.0,-0.15,0.19,0.85,0.47,-0.04,-0.05,0.01,-5.34,1.67,8.3,0.0,0.0,0.0,-4.35,1.78,8.6
1738248571.4366806,104004,0,0,,0.0,-0.15,0.19,0.85,0.47,-0.05,-0.0,0.0,-4.58,1.37,8.62,0.0,0.0,0.0,-4.35,1.78,8.6
1738248571.4529114,104005,0,0,,0.0,-0.15,0.19,0.85,0.47,-0.02,-0.06,0.0,-4.24,1.44,8.52,0.0,0.0,0.0,-4.34,1.78,8.61
1738248571.4683611,104006,0,0,,0.0,-0.15,0.19,0.85,0.47,0.0,-0.05,0.01,-4.6,1.69,8.6,0.0,0.0,0.0,-4.33,1.77,8.61
1738248571.4869404,104007,0,0,,0.0,-0.15,0.19,0.85,0.47,0.03,-0.08,0.02,-3.6,2.0,8.83,0.0,0.0,0.0,-4.33,1.78,8.61
1738248571.5035694,104008,0,0,,0.0,-0.15,0.19,0.85,0.47,0.03,-0.04,0.02,-4.39,1.89,8.54,0.0,0.0,0.0,-4.31,1.78,8.62
1738248571.5182202,104009,0,0,,0.0,-0.15,0.19,0.85,0.47,0.05,-0.01,0.03,-4.16,1.64,8.72,0.0,0.0,0.0,-4.31,1.79,8.62
1738248571.536432,104010,0,0,,0.0,-0.15,0.19,0.85,0.47,0.06,0.01,0.03,-4.48,1.86,8.38,0.0,0.0,0.0,-4.31,1.8,8.61
1738248571.5528858,104011,0,0,,0.0,-0.15,0.19,0.85,0.47,0.08,0.01,0.03,-4.75,1.57,8.37,0.0,0.0,0.0,-4.31,1.81,8.61
1738248571.5676382,104012,0,0,,0.0,-0.15,0.19,0.85,0.47,0.08,0.05,0.02,-4.85,1.76,8.49,0.0,0.0,0.0,-4.32,1.83,8.6
1738248571.5860345,104013,0,0,,0.0,-0.15,0.2,0.85,0.47,0.1,0.04,0.03,-4.06,1.83,8.73,0.0,0.0,0.0,-4.32,1.84,8.6
1738248571.6026142,104014,0,0,,0.0,-0.15,0.2,0.85,0.47,0.11,0.06,0.02,-4.76,1.61,8.49,0.0,0.0,0.0,-4.33,1.86,8.59
1738248571.617793,104015,0,0,,0.0,-0.15,0.2,0.85,0.47,0.11,0.07,0.02,-4.72,1.66,8.42,0.0,0.0,0.0,-4.34,1.88,8.58
1738248571.6369517,104016,0,0,,0.0,-0.15,0.2,0.85,0.47,0.12,0.1,0.01,-4.97,1.86,8.51,0.0,0.0,0.0,-4.35,1.89,8.58
1738248571.6531205,104017,0,0,,0.0,-0.15,0.2,0.85,0.47,0.13,0.12,0.0,-4.89,1.92,8.4,0.0,0.0,0.0,-4.37,1.91,8.56
1738248571.6677706,104018,0,0,,0.0,-0.15,0.2,0.85,0.47,0.13,0.18,-0.02,-4.22,2.16,8.57,0.0,0.0,0.0,-4.41,1.93,8.54
1738248571.6868324,104019,0,0,,0.0,-0.16,0.2,0.84,0.47,0.11,0.29,-0.07,-3.86,2.11,8.73,0.0,0.0,0.0,-4.43,1.93,8.52
1738248571.7030673,104020,0,0,,0.0,-0.16,0.21,0.84,0.47,0.08,0.5,-0.16,-3.88,1.99,8.74,0.0,0.0,0.0,-4.51,1.94,8.48
1738248571.7181423,104021,0,0,,0.0,-0.16,0.21,0.84,0.47,0.07,0.62,-0.19,-5.23,1.69,8.48,0.0,0.0,0.0,-4.63,1.93,8.42
1738248571.7371256,104022,0,0,,0.0,-0.17,0.21,0.84,0.47,0.06,0.92,-0.24,-4.43,1.86,8.62,0.0,0.0,0.0,-4.71,1.92,8.37
1738248571.7531705,104023,0,0,,0.0,-0.18,0.22,0.84,0.47,0.03,1.26,-0.31,-4.16,2.15,8.85,0.0,0.0,0.0,-4.91,1.91,8.26
1738248571.7687213,104024,0,0,,0.0,-0.19,0.22,0.83,0.47,-0.01,1.48,-0.39,-6.29,2.58,11.21,0.0,0.0,0.0,-5.19,1.85,8.1
1738248571.78739,104025,0,0,,0.0,-0.21,0.23,0.83,0.47,-0.17,2.12,-0.55,-6.68,2.6,8.97,0.0,0.0,0.0,-5.36,1.81,8.0
1738248571.8037717,104026,0,0,,0.0,-0.22,0.23,0.82,0.47,-0.29,2.64,-0.71,-2.74,2.05,6.24,0.0,0.0,0.0,-5.76,1.7,7.74
1738248571.8182616,104027,0,0,,0.0,-0.26,0.24,0.81,0.47,-0.43,3.15,-0.89,-3.96,1.31,7.27,0.0,0.0,0.0,-6.28,1.52,7.37
1738248571.8379643,104028,0,0,,0.0,-0.29,0.25,0.8,0.46,-0.57,3.77,-1.07,-3.49,2.16,8.06,0.0,0.0,0.0,-6.56,1.42,7.14
1738248571.853939,104029,0,0,,0.0,-0.31,0.26,0.79,0.46,-0.57,4.56,-1.25,-5.33,2.26,8.23,0.0,0.0,0.0,-7.17,1.17,6.58
1738248571.8690107,104030,0,0,,0.0,-0.36,0.28,0.77,0.46,-0.67,6.06,-1.45,-9.94,2.15,13.01,0.0,0.0,0.0,-7.87,0.9,5.77
1738248571.888602,104031,0,0,,0.0,-0.42,0.3,0.73,0.44,-0.9,7.13,-1.44,-10.54,2.38,14.62,0.0,0.0,0.0,-8.26,0.74,5.22
1738248571.9040592,104032,0,0,,0.0,-0.46,0.31,0.71,0.43,-0.88,8.22,-1.4,-9.77,2.38,10.6,0.0,0.0,0.0,-8.99,0.42,3.89
1738248571.9197087,104033,0,0,,0.0,-0.52,0.33,0.67,0.41,-1.09,8.84,-1.84,-9.92,4.74,15.95,0.0,0.0,0.0,-9.52,0.05,2.34
1738248571.9387803,104034,0,0,,0.0,-0.59,0.35,0.61,0.39,-0.67,9.54,-1.82,-18.33,-0.19,24.42,0.0,0.0,0.0,-9.69,-0.12,1.45
1738248571.9545004,104035,0,0,,0.0,-0.6,0.37,0.59,0.39,1.68,6.01,-0.73,-19.02,11.4,25.61,0.0,0.0,0.0,-9.8,-0.34,0.03
1738248571.9692445,104036,0,0,,0.0,-0.61,0.38,0.58,0.39,0.32,-0.2,-0.19,-3.01,8.34,14.8,0.0,0.0,0.0,-9.79,-0.38,-0.18
1738248571.9894154,104037,0,0,,0.0,-0.6,0.36,0.59,0.39,-0.8,-1.35,-0.23,-2.63,2.09,10.08,0.0,0.0,0.0,-9.79,-0.4,-0.06
1738248572.004588,104038,0,0,,0.0,-0.6,0.36,0.6,0.4,-0.26,-1.71,-0.55,-3.13,-0.79,7.64,0.0,0.0,0.0,-9.79,-0.49,0.23
1738248572.019528,104039,0,0,,0.0,-0.59,0.35,0.6,0.41,1.15,-2.14,-0.81,-4.68,3.32,9.99,0.0,0.0,0.0,-9.76,-0.62,0.63
1738248572.0392153,104040,0,0,,0.0,-0.57,0.34,0.61,0.43,1.05,-2.5,-0.92,-5.67,4.44,11.02,0.0,0.0,0.0,-9.74,-0.7,0.87
1738248572.0546782,104041,0,0,,0.0,-0.56,0.33,0.62,0.44,0.6,-3.75,-0.54,-4.9,2.96,7.8,0.0,0.0,0.0,-9.65,-0.81,1.52
1738248572.069291,104042,0,0,,0.0,-0.53,0.31,0.64,0.46,0.39,-4.49,-0.21,-5.59,0.55,6.88,0.0,0.0,0.0,-9.48,-0.84,2.34
1738248572.0896766,104043,0,0,,0.0,-0.5,0.29,0.66,0.48,0.47,-4.76,-0.13,-5.66,0.01,6.21,0.0,0.0,0.0,-9.36,-0.84,2.77
1738248572.1048622,104044,0,0,,0.0,-0.48,0.28,0.67,0.49,0.54,-5.2,-0.18,-5.81,0.72,5.87,0.0,0.0,0.0,-9.04,-0.84,3.69
1738248572.119948,104045,0,0,,0.0,-0.44,0.26,0.69,0.5,0.66,-5.38,0.05,-6.25,1.79,6.04,0.0,0.0,0.0,-8.61,-0.79,4.62
1738248572.1399004,104046,0,0,,0.0,-0.4,0.24,0.72,0.52,0.71,-5.4,0.28,-6.67,2.3,6.55,0.0,0.0,0.0,-8.36,-0.74,5.07
1738248572.1545548,104047,0,0,,0.0,-0.38,0.23,0.73,0.52,0.79,-5.42,0.93,-7.83,3.77,7.27,0.0,0.0,0.0,-7.79,-0.54,5.92
1738248572.1706605,104048,0,0,,0.0,-0.33,0.22,0.75,0.52,0.65,-5.38,1.77,-8.48,1.73,7.12,0.0,0.0,0.0,-7.14,-0.23,6.71
1738248572.1904233,104049,0,0,,0.0,-0.29,0.2,0.78,0.52,0.73,-5.25,2.11,-9.06,0.35,7.38,0.0,0.0,0.0,-6.44,0.16,7.38
1738248572.2053695,104050,0,0,,0.0,-0.26,0.2,0.79,0.52,1.06,-4.73,2.26,-11.2,-3.72,10.26,0.0,0.0,0.0,-6.09,0.37,7.67
1738248572.2210374,104051,0,0,,0.0,-0.22,0.19,0.81,0.51,1.47,-4.27,1.8,-16.46,-2.63,15.15,0.0,0.0,0.0,-5.4,0.8,8.14
1738248572.2407198,104052,0,0,,0.0,-0.17,0.18,0.82,0.51,1.47,-4.46,1.57,-16.69,-1.51,12.82,0.0,0.0,0.0,-4.64,1.17,8.55
1738248572.2557106,104053,0,0,,0.0,-0.15,0.18,0.83,0.51,1.17,-4.69,1.28,-18.36,-0.87,11.44,0.0,0.0,0.0,-4.23,1.32,8.74
1738248572.2718194,104054,0,0,,0.0,-0.11,0.16,0.84,0.51,1.05,-4.6,1.17,-17.38,-0.98,7.79,0.0,0.0,0.0,-3.39,1.59,9.06
1738248572.2912662,104055,0,0,,0.0,-0.07,0.15,0.84,0.51,1.01,-4.29,1.07,-17.36,-0.06,7.08,0.0,0.0,0.0,-2.62,1.82,9.27
1738248572.3061228,104056,0,0,,0.0,-0.05,0.15,0.85,0.51,0.77,-3.71,1.04,-15.46,-0.55,2.96,0.0,0.0,0.0,-2.26,1.92,9.34
1738248572.3224292,104057,0,0,,0.0,-0.02,0.14,0.85,0.51,0.53,-2.56,1.05,-13.42,-2.45,-1.97,0.0,0.0,0.0,-1.7,2.07,9.43
1738248572.3418574,104058,0,0,,0.0,-0.01,0.13,0.86,0.5,0.37,-1.79,0.93,-13.23,-3.27,-3.06,0.0,0.0,0.0,-1.41,2.15,9.46
1738248572.356827,104059,0,0,,0.0,-0.0,0.13,0.86,0.5,0.19,-0.21,0.5,-15.9,-4.19,-1.68,0.0,0.0,0.0,-1.38,2.18,9.46
1738248572.373307,104060,0,0,,0.0,-0.01,0.14,0.86,0.5,-0.03,0.84,0.23,-16.7,-3.62,-1.27,0.0,0.0,0.0,-1.48,2.2,9.44
1738248572.392149,104061,0,0,,0.0,-0.02,0.14,0.86,0.49,-0.45,1.19,0.08,-16.73,-3.52,3.3,0.0,0.0,0.0,-1.71,2.1,9.42
1738248572.4069574,104062,0,0,,0.0,-0.04,0.14,0.86,0.49,-0.66,1.14,0.16,-13.22,-2.93,1.56,0.0,0.0,0.0,-1.81,2.04,9.41
1738248572.4232936,104063,0,0,,0.0,-0.04,0.14,0.86,0.49,-1.06,1.31,0.03,-9.58,-1.34,3.06,0.0,0.0,0.0,-2.02,1.87,9.4
1738248572.4420772,104064,0,0,,0.0,-0.06,0.13,0.86,0.49,-1.1,1.48,0.02,26.14,-2.35,22.0,0.0,0.0,0.0,-2.27,1.7,9.38
1738248572.4570687,104065,0,0,,0.0,-0.07,0.14,0.86,0.49,-0.03,1.78,-0.78,16.36,7.42,34.74,0.0,0.0,0.0,-2.44,1.68,9.34
1738248572.4735878,104066,0,0,,0.0,-0.09,0.15,0.85,0.49,0.36,3.06,-0.57,-12.3,5.75,6.19,0.0,0.0,0.0,-3.05,1.68,9.16
1738248572.4923153,104067,0,0,,0.0,-0.11,0.17,0.85,0.48,1.22,2.36,0.26,-5.82,-0.79,10.79,0.0,0.0,0.0,-3.44,1.89,8.98
1738248572.5066333,104068,0,0,,0.0,-0.12,0.18,0.85,0.48,-0.67,2.49,0.05,-11.65,-5.74,17.02,0.0,0.0,0.0,-3.66,1.83,8.91
1738248572.5233617,104069,0,0,,0.0,-0.13,0.19,0.85,0.48,0.68,0.96,0.1,-3.56,8.25,8.76,0.0,0.0,0.0,-3.88,1.89,8.8
1738248572.542219,104070,0,0,,0.0,-0.14,0.19,0.85,0.48,0.4,0.96,0.0,-9.46,9.51,12.67,0.0,0.0,0.0,-4.03,1.91,8.72
1738248572.557065,104071,0,0,,0.0,-0.14,0.19,0.85,0.48,-0.28,0.66,-0.19,-5.22,0.42,10.12,0.0,0.0,0.0,-4.09,1.88,8.7
1738248572.5733352,104072,0,0,,0.0,-0.14,0.19,0.85,0.48,-0.14,0.53,-0.11,-3.37,2.01,8.89,0.0,0.0,0.0,-4.2,1.83,8.66
1738248572.592356,104073,0,0,,0.0,-0.15,0.19,0.84,0.48,-0.15,0.54,-0.08,-5.29,2.28,8.84,0.0,0.0,0.0,-4.29,1.8,8.62
1738248572.6068528,104074,0,0,,0.0,-0.15,0.19,0.84,0.48,-0.15,0.51,-0.09,-4.89,0.62,9.64,0.0,0.0,0.0,-4.34,1.78,8.6
1738248572.6235466,104075,0,0,,0.0,-0.16,0.2,0.84,0.48,0.03,0.38,0.01,-5.43,0.99,9.51,0.0,0.0,0.0,-4.4,1.78,8.57
1738248572.642548,104076,0,0,,0.0,-0.16,0.2,0.84,0.47,0.1,0.27,0.06,-4.7,1.92,9.69,0.0,0.0,0.0,-4.44,1.81,8.55
1738248572.656847,104077,0,0,,0.0,-0.16,0.2,0.84,0.47,0.17,0.15,0.09,-6.31,1.59,8.47,0.0,0.0,0.0,-4.45,1.83,8.54
1738248572.673187,104078,0,0,,0.0,-0.16,0.2,0.84,0.47,0.13,-0.02,0.07,-4.45,2.15,8.78,0.0,0.0,0.0,-4.45,1.86,8.53
1738248572.6919546,104079,0,0,,0.0,-0.16,0.2,0.84,0.47,0.08,-0.03,0.05,-4.68,1.92,8.4,0.0,0.0,0.0,-4.44,1.87,8.53
1738248572.7073038,104080,0,0,,0.0,-0.16,0.2,0.84,0.47,0.0,-0.05,0.02,-4.59,1.69,8.38,0.0,0.0,0.0,-4.44,1.87,8.53
1738248572.7228265,104081,0,0,,0.0,-0.16,0.2,0.84,0.47,-0.06,-0.03,-0.01,-4.63,1.68,8.41,0.0,0.0,0.0,-4.43,1.86,8.54
1738248572.7425966,104082,0,0,,0.0,-0.16,0.2,0.84,0.47,-0.06,-0.05,-0.01,-4.33,1.83,8.48,0.0,0.0,0.0,-4.42,1.85,8.55
1738248572.7570963,104083,0,0,,0.0,-0.16,0.2,0.84,0.47,-0.06,-0.03,-0.01,-4.74,1.59,8.53,0.0,0.0,0.0,-4.42,1.85,8.55
1738248572.773521,104084,0,0,,0.0,-0.16,0.2,0.84,0.47,-0.03,-0.06,-0.01,-5.2,1.93,8.31,0.0,0.0,0.0,-4.41,1.84,8.55
1738248572.7921786,104085,0,0,,0.0,-0.16,0.2,0.84,0.47,-0.03,-0.03,-0.0,-4.93,1.51,8.31,0.0,0.0,0.0,-4.41,1.83,8.56
1738248572.808476,104086,0,0,,0.0,-0.16,0.2,0.84,0.47,-0.0,-0.06,-0.01,-3.96,1.96,8.44,0.0,0.0,0.0,-4.4,1.83,8.56
1738248572.8282423,104087,0,0,,0.0,-0.15,0.2,0.84,0.47,0.0,-0.02,-0.01,-4.39,1.8,8.4,0.0,0.0,0.0,-4.4,1.83,8.56
1738248572.8447046,104088,0,0,,0.0,-0.15,0.2,0.84,0.47,0.02,-0.03,-0.0,-4.99,1.69,8.51,0.0,0.0,0.0,-4.39,1.84,8.56
1738248572.859568,104089,0,0,,0.0,-0.15,0.2,0.84,0.47,0.03,-0.03,0.0,-4.83,1.63,8.5,0.0,0.0,0.0,-4.39,1.84,8.56
1738248572.8781657,104090,0,0,,0.0,-0.15,0.2,0.84,0.47,0.05,-0.02,0.01,-4.28,1.55,8.63,0.0,0.0,0.0,-4.39,1.85,8.56
1738248572.8943524,104091,0,0,,0.0,-0.15,0.2,0.84,0.47,0.06,0.01,0.01,-3.57,2.16,8.85,0.0,0.0,0.0,-4.39,1.86,8.56
1738248572.9090781,104092,0,0,,0.0,-0.15,0.2,0.84,0.47,0.07,-0.02,0.01,-4.8,1.62,8.4,0.0,0.0,0.0,-4.39,1.86,8.56
1738248572.9262028,104093,0,0,,0.0,-0.15,0.2,0.84,0.47,0.07,0.02,0.01,-4.86,1.68,8.44,0.0,0.0,0.0,-4.39,1.87,8.56
1738248572.943624,104094,0,0,,0.0,-0.15,0.2,0.84,0.47,0.08,0.02,0.01,-4.58,1.72,8.41,0.0,0.0,0.0,-4.4,1.89,8.55
1738248572.9580276,104095,0,0,,0.0,-0.15,0.2,0.84,0.47,0.08,0.04,0.0,-5.16,1.82,8.26,0.0,0.0,0.0,-4.41,1.89,8.55
1738248572.9741254,104096,0,0,,0.0,-0.15,0.2,0.84,0.47,0.08,0.03,0.0,-4.95,1.95,8.26,0.0,0.0,0.0,-4.41,1.9,8.54
1738248572.992687,104097,0,0,,0.0,-0.15,0.2,0.84,0.47,0.08,0.07,-0.02,-5.05,1.72,8.56,0.0,0.0,0.0,-4.42,1.92,8.53
1738248573.0078435,104098,0,0,,0.0,-0.15,0.2,0.84,0.47,0.08,0.1,-0.04,-4.65,2.06,8.52,0.0,0.0,0.0,-4.43,1.92,8.53
1738248573.0228047,104099,0,0,,0.0,-0.16,0.2,0.84,0.47,0.07,0.2,-0.08,-4.16,2.07,8.66,0.0,0.0,0.0,-4.46,1.93,8.51
1738248573.042409,104100,0,0,,0.0,-0.16,0.21,0.84,0.48,0.06,0.25,-0.11,-4.18,2.02,8.58,0.0,0.0,0.0,-4.52,1.92,8.48
1738248573.0570755,104101,0,0,,0.0,-0.16,0.21,0.84,0.48,0.06,0.42,-0.16,-4.07,1.78,8.71,0.0,0.0,0.0,-4.55,1.92,8.46
1738248573.0724268,104102,0,0,,0.0,-0.16,0.21,0.84,0.48,0.08,0.61,-0.16,-5.14,1.73,8.51,0.0,0.0,0.0,-4.65,1.92,8.41
1738248573.092343,104103,0,0,,0.0,-0.17,0.21,0.84,0.48,0.08,0.72,-0.17,-4.4,1.73,8.78,0.0,0.0,0.0,-4.71,1.92,8.37
1738248573.1067905,104104,0,0,,0.0,-0.17,0.22,0.83,0.48,0.1,1.02,-0.23,-0.72,2.43,6.41,0.0,0.0,0.0,-4.87,1.92,8.28
1738248573.1228142,104105,0,0,,0.0,-0.19,0.22,0.83,0.48,0.0,1.62,-0.32,-3.61,2.15,7.92,0.0,0.0,0.0,-5.12,1.89,8.14
1738248573.1423726,104106,0,0,,0.0,-0.2,0.23,0.82,0.47,-0.0,1.7,-0.36,-2.3,1.83,5.14,0.0,0.0,0.0,-5.26,1.87,8.05
1738248573.1570973,104107,0,0,,0.0,-0.21,0.24,0.82,0.47,-0.2,2.61,-0.67,-7.82,1.31,8.79,0.0,0.0,0.0,-5.64,1.79,7.81
1738248573.1724782,104108,0,0,,0.0,-0.24,0.25,0.81,0.47,-0.31,3.13,-0.85,-4.11,2.81,9.01,0.0,0.0,0.0,-6.12,1.65,7.48
1738248573.192636,104109,0,0,,0.0,-0.28,0.26,0.8,0.47,-0.46,3.65,-0.92,-6.79,2.03,7.48,0.0,0.0,0.0,-6.39,1.56,7.26
1738248573.2074513,104110,0,0,,0.0,-0.3,0.26,0.79,0.47,-0.59,4.31,-1.16,-6.53,1.64,7.58,0.0,0.0,0.0,-6.99,1.34,6.74
1738248573.222571,104111,0,0,,0.0,-0.34,0.28,0.77,0.46,-0.61,5.4,-1.35,-4.65,0.64,11.05,0.0,0.0,0.0,-7.65,1.08,6.03
1738248573.243128,104112,0,0,,0.0,-0.4,0.3,0.74,0.45,-0.67,6.34,-1.38,-8.19,1.23,14.51,0.0,0.0,0.0,-8.02,0.94,5.56
1738248573.2576098,104113,0,0,,0.0,-0.43,0.31,0.73,0.44,-1.33,7.8,-1.38,-12.62,4.16,12.88,0.0,0.0,0.0,-8.77,0.62,4.33
1738248573.2728016,104114,0,0,,0.0,-0.5,0.32,0.69,0.42,-1.69,8.27,-2.18,-13.01,3.78,19.96,0.0,0.0,0.0,-9.36,0.15,2.91
1738248573.2931752,104115,0,0,,0.0,-0.56,0.33,0.64,0.4,-1.57,8.57,-2.19,-18.92,1.87,27.93,0.0,0.0,0.0,-9.57,-0.08,2.13
1738248573.3076441,104116,0,0,,0.0,-0.58,0.34,0.63,0.4,-0.12,4.55,-0.92,-15.94,9.93,20.76,0.0,0.0,0.0,-9.74,-0.33,1.0
1738248573.3230393,104117,0,0,,0.0,-0.58,0.34,0.62,0.4,-0.32,-0.32,-0.62,0.01,5.13,8.22,0.0,0.0,0.0,-9.75,-0.47,0.88
1738248573.3431807,104118,0,0,,0.0,-0.59,0.33,0.62,0.4,-0.51,-0.33,-0.48,-3.96,1.3,6.68,0.0,0.0,0.0,-9.75,-0.52,0.91
1738248573.3575861,104119,0,0,,0.0,-0.59,0.33,0.62,0.4,0.14,-0.39,-0.56,-4.52,4.0,10.19,0.0,0.0,0.0,-9.73,-0.62,0.96
1738248573.3728569,104120,0,0,,0.0,-0.58,0.32,0.62,0.41,0.29,-0.67,-0.59,-3.68,2.67,9.97,0.0,0.0,0.0,-9.71,-0.73,1.13
1738248573.3932238,104121,0,0,,0.0,-0.57,0.32,0.63,0.42,0.19,-1.62,-0.53,-3.94,2.08,9.63,0.0,0.0,0.0,-9.69,-0.77,1.28
1738248573.4074712,104122,0,0,,0.0,-0.56,0.31,0.64,0.43,0.64,-2.68,-0.24,-3.99,0.61,6.91,0.0,0.0,0.0,-9.61,-0.82,1.74
1738248573.4232833,104123,0,0,,0.0,-0.54,0.3,0.65,0.44,0.75,-3.09,-0.17,-3.95,-0.59,6.13,0.0,0.0,0.0,-9.48,-0.82,2.36
1738248573.4433649,104124,0,0,,0.0,-0.51,0.29,0.67,0.46,0.86,-3.66,-0.19,-4.64,-0.95,6.92,0.0,0.0,0.0,-9.39,-0.81,2.7
1738248573.4579601,104125,0,0,,0.0,-0.49,0.28,0.68,0.47,0.88,-4.2,-0.31,-4.27,-0.21,6.41,0.0,0.0,0.0,-9.14,-0.81,3.44
1738248573.4733732,104126,0,0,,0.0,-0.46,0.27,0.69,0.49,0.91,-4.41,-0.33,-5.18,1.12,6.96,0.0,0.0,0.0,-8.8,-0.79,4.23
1738248573.4929335,104127,0,0,,0.0,-0.43,0.25,0.71,0.5,0.9,-4.68,-0.05,-5.42,1.01,7.14,0.0,0.0,0.0,-8.6,-0.76,4.63
1738248573.5080323,104128,0,0,,0.0,-0.41,0.24,0.72,0.51,0.86,-4.85,0.37,-6.67,1.86,8.33,0.0,0.0,0.0,-8.14,-0.63,5.43
1738248573.5235329,104129,0,0,,0.0,-0.37,0.23,0.74,0.52,0.84,-4.92,0.64,-7.74,2.32,9.2,0.0,0.0,0.0,-7.59,-0.42,6.19
1738248573.543253,104130,0,0,,0.0,-0.32,0.21,0.76,0.52,0.63,-5.04,1.3,-7.87,1.72,9.27,0.0,0.0,0.0,-7.28,-0.29,6.55
1738248573.5579596,104131,0,0,,0.0,-0.3,0.2,0.78,0.52,0.47,-5.07,1.78,-8.3,-0.92,9.9,0.0,0.0,0.0,-6.61,0.0,7.24
1738248573.5733294,104132,0,0,,0.0,-0.26,0.18,0.8,0.51,0.41,-5.01,1.82,-9.42,-2.79,11.46,0.0,0.0,0.0,-5.88,0.27,7.83
1738248573.5933897,104133,0,0,,0.0,-0.21,0.17,0.82,0.51,0.65,-4.75,1.72,-11.56,-1.5,13.11,0.0,0.0,0.0,-5.51,0.42,8.09
1738248573.6080756,104134,0,0,,0.0,-0.19,0.17,0.82,0.51,0.99,-4.52,1.76,-13.93,-0.82,13.38,0.0,0.0,0.0,-4.75,0.75,8.54
1738248573.6236644,104135,0,0,,0.0,-0.15,0.15,0.84,0.5,0.98,-4.41,1.8,-17.11,-0.66,11.85,0.0,0.0,0.0,-3.98,1.06,8.89
1738248573.6437106,104136,0,0,,0.0,-0.11,0.14,0.85,0.49,0.79,-4.21,1.79,-17.28,-1.48,10.69,0.0,0.0,0.0,-3.6,1.19,9.04
1738248573.6586187,104137,0,0,,0.0,-0.09,0.14,0.86,0.49,0.8,-3.9,1.51,-16.8,-3.84,7.71,0.0,0.0,0.0,-2.85,1.43,9.27
1738248573.6741319,104138,0,0,,0.0,-0.06,0.13,0.86,0.49,0.94,-3.63,1.19,-16.91,-3.84,3.85,0.0,0.0,0.0,-2.19,1.67,9.41
1738248573.6939652,104139,0,0,,0.0,-0.03,0.13,0.86,0.49,1.26,-2.88,0.52,-18.3,-3.36,3.26,0.0,0.0,0.0,-1.92,1.79,9.44
1738248573.7079227,104140,0,0,,0.0,-0.01,0.13,0.86,0.49,1.31,-2.24,-0.04,-16.99,-3.21,-3.59,0.0,0.0,0.0,-1.48,2.04,9.47
1738248573.7241611,104141,0,0,,0.0,0.0,0.13,0.86,0.49,1.17,-1.74,-0.19,-18.93,-2.19,-4.48,0.0,0.0,0.0,-1.22,2.23,9.47
1738248573.7434456,104142,0,0,,0.0,0.01,0.13,0.86,0.5,0.6,-0.56,-0.11,-18.62,-1.97,-4.91,0.0,0.0,0.0,-1.17,2.28,9.46
1738248573.7585711,104143,0,0,,0.0,0.0,0.13,0.86,0.49,-0.31,0.47,0.05,-15.94,-1.59,-2.32,0.0,0.0,0.0,-1.21,2.27,9.46
1738248573.7741592,104144,0,0,,0.0,-0.01,0.13,0.86,0.49,-0.72,0.93,0.09,-14.42,-1.28,-0.02,0.0,0.0,0.0,-1.42,2.1,9.47
1738248573.7938275,104145,0,0,,0.0,-0.03,0.13,0.86,0.49,-1.22,1.59,0.22,-3.47,-0.51,8.34,0.0,0.0,0.0,-1.56,2.0,9.47
1738248573.8081222,104146,0,0,,0.0,-0.04,0.13,0.86,0.49,-0.28,1.98,-0.45,17.15,13.3,36.43,0.0,0.0,0.0,-1.86,1.87,9.44
1738248573.8240418,104147,0,0,,0.0,-0.07,0.14,0.86,0.49,-0.94,3.87,-1.27,-14.19,5.66,5.54,0.0,0.0,0.0,-2.58,1.68,9.3
1738248573.8439178,104148,0,0,,0.0,-0.09,0.16,0.86,0.48,0.37,2.73,0.09,-10.43,2.74,4.12,0.0,0.0,0.0,-2.82,1.71,9.23
1738248573.858776,104149,0,0,,0.0,-0.1,0.17,0.85,0.48,0.13,2.64,0.21,-11.44,-10.69,13.4,0.0,0.0,0.0,-3.27,1.8,9.06
1738248573.8734577,104150,0,0,,0.0,-0.12,0.18,0.85,0.48,-0.07,2.37,-0.06,-3.95,5.66,13.33,0.0,0.0,0.0,-3.62,1.87,8.91
1738248573.8933454,104151,0,0,,0.0,-0.12,0.19,0.85,0.47,1.2,1.41,0.45,-12.64,10.41,13.76,0.0,0.0,0.0,-3.73,1.99,8.84
1738248573.9078715,104152,0,0,,0.0,-0.13,0.2,0.85,0.47,0.39,1.06,0.1,-5.75,1.75,9.78,0.0,0.0,0.0,-3.91,2.12,8.73
1738248573.9231544,104153,0,0,,0.0,-0.13,0.2,0.85,0.47,0.04,1.15,-0.03,-4.92,3.78,9.69,0.0,0.0,0.0,-4.1,2.11,8.65
1738248573.9435606,104154,0,0,,0.0,-0.14,0.2,0.85,0.47,-0.25,0.88,-0.24,-5.27,3.08,9.46,0.0,0.0,0.0,-4.18,2.08,8.62
1738248573.9579947,104155,0,0,,0.0,-0.15,0.2,0.85,0.47,-0.4,0.66,-0.31,-5.69,0.46,9.82,0.0,0.0,0.0,-4.31,1.99,8.57
1738248573.9734697,104156,0,0,,0.0,-0.15,0.2,0.84,0.47,-0.25,0.48,-0.21,-6.48,1.11,9.25,0.0,0.0,0.0,-4.39,1.95,8.54
1738248573.9934952,104157,0,0,,0.0,-0.15,0.2,0.84,0.47,0.06,0.34,-0.03,-5.22,2.23,9.68,0.0,0.0,0.0,-4.42,1.96,8.53
1738248574.008545,104158,0,0,,0.0,-0.15,0.21,0.84,0.47,0.1,0.16,0.0,-6.28,1.35,8.51,0.0,0.0,0.0,-4.44,1.97,8.51
1738248574.023517,104159,0,0,,0.0,-0.15,0.21,0.84,0.47,0.09,0.09,0.01,-3.97,2.45,8.97,0.0,0.0,0.0,-4.45,1.99,8.5
1738248574.0435593,104160,0,0,,0.0,-0.15,0.21,0.84,0.47,0.03,-0.01,0.02,-4.93,2.29,8.28,0.0,0.0,0.0,-4.45,1.99,8.5
1738248574.0578918,104161,0,0,,0.0,-0.15,0.21,0.84,0.47,-0.03,-0.03,-0.0,-4.21,1.96,8.5,0.0,0.0,0.0,-4.44,1.99,8.5
1738248574.0737965,104162,0,0,,0.0,-0.15,0.21,0.84,0.47,-0.04,-0.05,-0.01,-4.71,2.12,8.41,0.0,0.0,0.0,-4.44,1.98,8.51
1738248574.0937288,104163,0,0,,0.0,-0.15,0.21,0.84,0.47,-0.06,-0.05,-0.03,-3.64,2.05,8.75,0.0,0.0,0.0,-4.43,1.97,8.51
1738248574.1081152,104164,0,0,,0.0,-0.15,0.2,0.84,0.47,-0.07,-0.03,-0.04,-4.26,1.75,8.59,0.0,0.0,0.0,-4.43,1.96,8.52
1738248574.1241734,104165,0,0,,0.0,-0.15,0.2,0.84,0.47,-0.06,-0.04,-0.04,-4.41,2.32,8.38,0.0,0.0,0.0,-4.42,1.95,8.53
1738248574.1434584,104166,0,0,,0.0,-0.15,0.2,0.84,0.47,-0.05,-0.02,-0.05,-4.82,1.71,8.24,0.0,0.0,0.0,-4.42,1.94,8.53
1738248574.1579714,104167,0,0,,0.0,-0.15,0.2,0.84,0.47,-0.03,-0.03,-0.04,-4.17,2.11,8.73,0.0,0.0,0.0,-4.42,1.93,8.53
1738248574.173002,104168,0,0,,0.0,-0.15,0.2,0.84,0.47,-0.02,-0.02,-0.03,-4.71,1.79,8.41,0.0,0.0,0.0,-4.42,1.93,8.53
1738248574.1934721,104169,0,0,,0.0,-0.15,0.2,0.84,0.47,0.0,-0.03,-0.02,-4.01,2.08,8.53,0.0,0.0,0.0,-4.42,1.92,8.53
1738248574.208675,104170,0,0,,0.0,-0.15,0.2,0.84,0.47,0.01,-0.03,-0.01,-4.68,1.77,8.39,0.0,0.0,0.0,-4.42,1.92,8.53
1738248574.2244785,104171,0,0,,0.0,-0.15,0.2,0.84,0.47,0.01,-0.02,-0.01,-4.67,1.81,8.39,0.0,0.0,0.0,-4.41,1.93,8.54
1738248574.24403,104172,0,0,,0.0,-0.15,0.2,0.84,0.47,0.01,-0.0,-0.0,-4.69,1.79,8.42,0.0,0.0,0.0,-4.41,1.93,8.54
1738248574.2589362,104173,0,0,,0.0,-0.15,0.2,0.84,0.47,0.02,-0.02,0.0,-4.43,1.97,8.55,0.0,0.0,0.0,-4.41,1.93,8.54
1738248574.274499,104174,0,0,,0.0,-0.15,0.2,0.84,0.47,0.02,-0.0,0.0,-4.55,1.93,8.58,0.0,0.0,0.0,-4.41,1.93,8.53
1738248574.2950916,104175,0,0,,0.0,-0.15,0.2,0.84,0.47,0.02,-0.0,0.0,-4.45,1.9,8.4,0.0,0.0,0.0,-4.41,1.94,8.53
1738248574.3084955,104176,0,0,,0.0,-0.15,0.2,0.84,0.47,0.01,0.02,-0.01,-4.69,1.81,8.41,0.0,0.0,0.0,-4.41,1.94,8.53
1738248574.3235662,104177,0,0,,0.0,-0.15,0.2,0.84,0.47,0.02,0.03,-0.0,-3.87,1.91,8.66,0.0,0.0,0.0,-4.42,1.94,8.53
1738248574.3432894,104178,0,0,,0.0,-0.15,0.2,0.84,0.47,0.01,0.09,-0.03,-5.02,1.8,8.33,0.0,0.0,0.0,-4.43,1.94,8.52
1738248574.357638,104179,0,0,,0.0,-0.15,0.2,0.84,0.47,0.01,0.15,-0.06,-5.02,1.97,8.41,0.0,0.0,0.0,-4.46,1.93,8.51
1738248574.3732362,104180,0,0,,0.0,-0.16,0.21,0.84,0.47,0.0,0.22,-0.09,-4.23,2.04,8.7,0.0,0.0,0.0,-4.5,1.92,8.49
1738248574.3933706,104181,0,0,,0.0,-0.16,0.21,0.84,0.47,-0.01,0.38,-0.16,-4.42,1.8,8.65,0.0,0.0,0.0,-4.54,1.92,8.47
1738248574.4080942,104182,0,0,,0.0,-0.16,0.21,0.84,0.48,-0.01,0.63,-0.21,-4.79,1.57,8.43,0.0,0.0,0.0,-4.64,1.9,8.42
1738248574.4231634,104183,0,0,,0.0,-0.17,0.21,0.84,0.48,0.0,0.78,-0.21,-3.88,2.0,8.85,0.0,0.0,0.0,-4.78,1.88,8.34
1738248574.443887,104184,0,0,,0.0,-0.18,0.21,0.84,0.48,0.01,1.11,-0.26,-4.21,2.02,8.78,0.0,0.0,0.0,-4.86,1.87,8.3
1738248574.458212,104185,0,0,,0.0,-0.19,0.22,0.83,0.48,-0.01,1.54,-0.38,-2.73,1.59,5.98,0.0,0.0,0.0,-5.1,1.84,8.16
1738248574.4735863,104186,0,0,,0.0,-0.21,0.23,0.82,0.47,-0.05,1.87,-0.5,-3.13,2.94,11.29,0.0,0.0,0.0,-5.26,1.81,8.07
1738248574.49408,104187,0,0,,0.0,-0.22,0.23,0.82,0.47,-0.16,2.42,-0.57,-2.15,2.37,7.35,0.0,0.0,0.0,-5.64,1.73,7.83
1738248574.508517,104188,0,0,,0.0,-0.24,0.24,0.81,0.47,-0.35,3.39,-0.93,-7.5,1.91,9.93,0.0,0.0,0.0,-6.12,1.59,7.48
1738248574.5236752,104189,0,0,,0.0,-0.28,0.25,0.8,0.47,-0.5,3.84,-1.08,-3.43,1.98,7.78,0.0,0.0,0.0,-6.41,1.49,7.26
1738248574.5437026,104190,0,0,,0.0,-0.3,0.26,0.79,0.47,-0.74,4.62,-1.36,-4.89,3.78,9.6,0.0,0.0,0.0,-7.04,1.24,6.7
1738248574.5583732,104191,0,0,,0.0,-0.35,0.27,0.77,0.46,-1.09,6.21,-1.61,-12.28,-0.29,15.71,0.0,0.0,0.0,-7.77,0.89,5.9
1738248574.573837,104192,0,0,,0.0,-0.42,0.29,0.73,0.45,-1.33,7.56,-1.7,-13.29,2.39,17.11,0.0,0.0,0.0,-8.2,0.69,5.33
1738248574.594102,104193,0,0,,0.0,-0.46,0.3,0.71,0.44,-1.73,8.48,-1.64,-12.75,7.32,18.83,0.0,0.0,0.0,-8.97,0.28,3.94
1738248574.6090631,104194,0,0,,0.0,-0.53,0.31,0.67,0.41,-2.25,8.08,-1.81,-17.76,-5.74,26.62,0.0,0.0,0.0,-9.48,-0.17,2.49
1738248574.6245048,104195,0,0,,0.0,-0.57,0.31,0.65,0.4,-1.76,6.58,-1.68,-13.29,-2.64,23.45,0.0,0.0,0.0,-9.66,-0.51,1.58
1738248574.6434784,104196,0,0,,0.0,-0.57,0.31,0.64,0.41,0.06,1.13,-1.38,3.86,9.6,12.43,0.0,0.0,0.0,-9.67,-0.64,1.48
1738248574.658468,104197,0,0,,0.0,-0.58,0.3,0.63,0.41,-0.73,0.56,-1.26,-2.51,2.55,12.43,0.0,0.0,0.0,-9.66,-0.89,1.37
1738248574.6741076,104198,0,0,,0.0,-0.58,0.3,0.63,0.42,-0.28,-0.04,-1.05,-2.23,4.69,12.44,0.0,0.0,0.0,-9.65,-0.99,1.37
1738248574.6935697,104199,0,0,,0.0,-0.58,0.29,0.63,0.42,0.18,-1.23,-0.7,-2.13,1.66,11.77,0.0,0.0,0.0,-9.61,-1.12,1.55
1738248574.708717,104200,0,0,,0.0,-0.57,0.28,0.64,0.43,0.46,-2.43,-0.81,-2.37,-0.67,8.52,0.0,0.0,0.0,-9.52,-1.25,1.95
1738248574.7237225,104201,0,0,,0.0,-0.55,0.27,0.65,0.45,0.76,-2.92,-0.99,-3.06,-0.52,8.25,0.0,0.0,0.0,-9.45,-1.33,2.23
1738248574.7436843,104202,0,0,,0.0,-0.53,0.26,0.66,0.47,1.27,-3.6,-1.24,-4.07,1.46,7.76,0.0,0.0,0.0,-9.25,-1.49,2.89
1738248574.758371,104203,0,0,,0.0,-0.5,0.25,0.67,0.49,1.41,-4.13,-0.98,-4.27,1.5,6.71,0.0,0.0,0.0,-8.96,-1.59,3.64
1738248574.7733536,104204,0,0,,0.0,-0.47,0.23,0.68,0.51,1.46,-4.28,-0.76,-4.74,1.55,7.03,0.0,0.0,0.0,-8.79,-1.6,4.03
1738248574.7930229,104205,0,0,,0.0,-0.45,0.23,0.69,0.52,1.61,-4.55,-0.22,-6.25,0.81,8.13,0.0,0.0,0.0,-8.39,-1.52,4.82
1738248574.8080704,104206,0,0,,0.0,-0.41,0.21,0.71,0.54,1.64,-4.87,0.19,-7.25,-0.44,8.59,0.0,0.0,0.0,-7.91,-1.34,5.62
1738248574.8229861,104207,0,0,,0.0,-0.39,0.21,0.72,0.54,1.68,-5.01,0.29,-7.81,-0.02,8.9,0.0,0.0,0.0,-7.63,-1.22,6.02
1738248574.8404891,104208,0,0,,0.0,-0.34,0.19,0.73,0.56,1.65,-5.2,0.6,-8.4,3.16,8.19,0.0,0.0,0.0,-7.0,-0.94,6.79
1738248574.8565445,104209,0,0,,0.0,-0.29,0.18,0.75,0.56,1.62,-5.19,1.01,-8.8,3.01,7.53,0.0,0.0,0.0,-6.31,-0.56,7.48
1738248574.8714988,104210,0,0,,0.0,-0.27,0.18,0.76,0.56,1.51,-4.85,2.05,-9.33,1.7,8.39,0.0,0.0,0.0,-5.96,-0.33,7.77
1738248574.886892,104211,0,0,,0.0,-0.22,0.17,0.79,0.55,1.46,-4.5,2.48,-14.2,0.07,14.06,0.0,0.0,0.0,-5.29,0.18,8.24
1738248574.9056578,104212,0,0,,0.0,-0.18,0.17,0.81,0.54,1.58,-4.11,2.98,-14.44,-1.96,13.04,0.0,0.0,0.0,-4.95,0.46,8.44
1738248574.9207,104213,0,0,,0.0,-0.16,0.16,0.82,0.53,1.25,-4.21,2.55,-16.22,-2.57,14.95,0.0,0.0,0.0,-4.21,0.93,8.8
1738248574.937132,104214,0,0,,0.0,-0.11,0.15,0.83,0.52,1.25,-4.21,2.55,-15.2,-8.85,11.54,0.0,0.0,0.0,-3.42,1.32,9.09
1738248574.9558377,104215,0,0,,0.0,-0.07,0.14,0.84,0.52,1.27,-4.41,1.8,-15.26,-9.22,11.05,0.0,0.0,0.0,-3.0,1.49,9.21
1738248574.970612,104216,0,0,,0.0,-0.05,0.14,0.84,0.52,1.31,-4.15,0.53,-14.8,-5.94,7.86,0.0,0.0,0.0,-2.21,1.77,9.38
1738248574.9866543,104217,0,0,,0.0,-0.01,0.13,0.84,0.52,1.2,-3.91,0.08,-13.75,-1.74,1.09,0.0,0.0,0.0,-1.54,1.98,9.47
1738248575.0060565,104218,0,0,,0.0,0.01,0.12,0.84,0.53,1.09,-2.99,-0.27,-14.41,-1.75,0.18,0.0,0.0,0.0,-1.27,2.08,9.49
1738248575.0206246,104219,0,0,,0.0,0.02,0.13,0.84,0.53,1.27,-1.77,-0.19,-15.58,-0.52,-2.28,0.0,0.0,0.0,-0.9,2.3,9.48
1738248575.0366704,104220,0,0,,0.0,0.03,0.13,0.84,0.53,1.0,-1.14,-0.06,-17.23,-0.43,-0.89,0.0,0.0,0.0,-0.74,2.44,9.46
1738248575.055999,104221,0,0,,0.0,0.03,0.12,0.84,0.53,-0.09,-0.04,0.45,-16.12,-0.79,-1.22,0.0,0.0,0.0,-0.73,2.43,9.47
1738248575.070564,104222,0,0,,0.0,0.03,0.12,0.84,0.52,-0.94,0.81,1.01,-13.42,-1.02,0.45,0.0,0.0,0.0,-0.79,2.31,9.49
1738248575.0865078,104223,0,0,,0.0,0.01,0.12,0.85,0.51,-1.23,1.19,1.18,-13.17,-1.48,3.12,0.0,0.0,0.0,-0.98,2.09,9.52
1738248575.1063104,104224,0,0,,0.0,-0.01,0.12,0.86,0.49,-1.45,1.67,1.63,-11.49,-3.22,4.21,0.0,0.0,0.0,-1.1,1.97,9.54
1738248575.1208448,104225,0,0,,0.0,-0.02,0.12,0.86,0.49,-0.62,2.8,-0.08,28.64,-6.64,15.63,0.0,0.0,0.0,-1.5,1.81,9.51
1738248575.1364849,104226,0,0,,0.0,-0.06,0.13,0.86,0.49,-0.62,2.8,-0.08,-10.05,-6.44,9.58,0.0,0.0,0.0,-2.22,1.63,9.4
1738248575.1563199,104227,0,0,,0.0,-0.09,0.15,0.85,0.5,-0.26,3.87,-1.17,-16.34,2.45,2.43,0.0,0.0,0.0,-2.59,1.58,9.32
1738248575.1705098,104228,0,0,,0.0,-0.1,0.15,0.85,0.5,-0.2,3.09,-0.1,-1.95,-1.65,21.57,0.0,0.0,0.0,-3.14,1.55,9.15
1738248575.1869242,104229,0,0,,0.0,-0.13,0.16,0.85,0.49,-0.2,3.09,-0.1,-6.51,-3.14,8.76,0.0,0.0,0.0,-3.67,1.49,8.96
1738248575.2057807,104230,0,0,,0.0,-0.14,0.18,0.84,0.49,0.64,1.82,0.36,-8.5,2.69,16.39,0.0,0.0,0.0,-3.82,1.56,8.89
1738248575.221202,104231,0,0,,0.0,-0.14,0.18,0.84,0.49,-0.05,1.28,-0.09,-5.56,2.44,9.69,0.0,0.0,0.0,-4.08,1.62,8.76
1738248575.2368789,104232,0,0,,0.0,-0.15,0.19,0.84,0.48,-0.05,1.28,-0.09,-3.65,1.29,9.3,0.0,0.0,0.0,-4.29,1.61,8.66
1738248575.2559018,104233,0,0,,0.0,-0.16,0.19,0.84,0.48,0.06,1.05,-0.05,-6.12,2.89,9.47,0.0,0.0,0.0,-4.38,1.62,8.61
1738248575.2703774,104234,0,0,,0.0,-0.16,0.19,0.84,0.48,0.26,0.57,0.12,-7.34,1.35,8.8,0.0,0.0,0.0,-4.52,1.65,8.54
1738248575.2871788,104235,0,0,,0.0,-0.17,0.2,0.84,0.48,0.26,0.57,0.12,-6.01,0.95,8.63,0.0,0.0,0.0,-4.58,1.7,8.49
1738248575.3059144,104236,0,0,,0.0,-0.16,0.2,0.84,0.48,0.24,0.11,0.15,-5.65,0.69,9.22,0.0,0.0,0.0,-4.59,1.73,8.49
1738248575.320684,104237,0,0,,0.0,-0.16,0.2,0.84,0.48,0.18,0.05,0.13,-5.44,1.31,8.46,0.0,0.0,0.0,-4.59,1.77,8.48
1738248575.336853,104238,0,0,,0.0,-0.16,0.2,0.84,0.48,0.18,0.05,0.13,-5.08,1.88,8.65,0.0,0.0,0.0,-4.59,1.81,8.47
1738248575.356644,104239,0,0,,0.0,-0.16,0.2,0.84,0.48,0.18,-0.02,0.1,-4.37,2.03,8.47,0.0,0.0,0.0,-4.58,1.83,8.47
1738248575.3703737,104240,0,0,,0.0,-0.16,0.2,0.84,0.48,0.07,-0.05,0.03,-4.59,2.36,8.18,0.0,0.0,0.0,-4.57,1.85,8.47
1738248575.386893,104241,0,0,,0.0,-0.16,0.2,0.84,0.48,0.07,-0.05,0.03,-4.69,2.51,8.25,0.0,0.0,0.0,-4.56,1.86,8.47
1738248575.40619,104242,0,0,,0.0,-0.16,0.2,0.84,0.48,-0.01,-0.08,-0.02,-3.86,2.23,8.77,0.0,0.0,0.0,-4.56,1.86,8.47
1738248575.4208145,104243,0,0,,0.0,-0.16,0.2,0.84,0.48,-0.04,-0.08,-0.05,-4.86,1.68,8.19,0.0,0.0,0.0,-4.54,1.85,8.48
1738248575.4369485,104244,0,0,,0.0,-0.16,0.2,0.84,0.48,-0.04,-0.08,-0.05,-5.18,1.64,8.41,0.0,0.0,0.0,-4.53,1.84,8.49
1738248575.456273,104245,0,0,,0.0,-0.16,0.2,0.84,0.48,-0.04,-0.1,-0.05,-4.76,1.82,8.45,0.0,0.0,0.0,-4.52,1.83,8.5
1738248575.470814,104246,0,0,,0.0,-0.16,0.2,0.84,0.48,-0.03,-0.11,-0.04,-4.17,1.97,8.51,0.0,0.0,0.0,-4.51,1.82,8.51
1738248575.4873226,104247,0,0,,0.0,-0.16,0.2,0.84,0.48,-0.03,-0.11,-0.04,-5.13,1.66,8.33,0.0,0.0,0.0,-4.49,1.82,8.52
1738248575.5060031,104248,0,0,,0.0,-0.16,0.2,0.84,0.48,-0.02,-0.09,-0.04,-4.56,1.79,8.4,0.0,0.0,0.0,-4.48,1.81,8.52
1738248575.5210855,104249,0,0,,0.0,-0.16,0.2,0.84,0.48,-0.01,-0.09,-0.03,-4.37,1.57,8.42,0.0,0.0,0.0,-4.47,1.81,8.53
1738248575.5372632,104250,0,0,,0.0,-0.16,0.2,0.84,0.48,-0.01,-0.07,-0.03,-5.24,1.78,8.44,0.0,0.0,0.0,-4.46,1.8,8.54
1738248575.5563152,104251,0,0,,0.0,-0.16,0.2,0.84,0.48,0.0,-0.05,-0.02,-4.32,1.67,8.6,0.0,0.0,0.0,-4.45,1.8,8.54
1738248575.5706904,104252,0,0,,0.0,-0.16,0.2,0.84,0.48,0.03,-0.05,-0.0,-3.89,2.1,8.7,0.0,0.0,0.0,-4.45,1.81,8.54
1738248575.5872612,104253,0,0,,0.0,-0.16,0.2,0.84,0.48,0.02,-0.02,-0.01,-4.46,1.63,8.43,0.0,0.0,0.0,-4.45,1.81,8.54
1738248575.6066232,104254,0,0,,0.0,-0.16,0.2,0.84,0.48,0.03,0.0,-0.02,-4.61,2.0,8.4,0.0,0.0,0.0,-4.45,1.81,8.54
1738248575.620409,104255,0,0,,0.0,-0.16,0.2,0.84,0.48,0.04,0.03,-0.02,-4.86,1.7,8.23,0.0,0.0,0.0,-4.44,1.82,8.54
1738248575.637358,104256,0,0,,0.0,-0.16,0.2,0.84,0.48,0.04,0.03,-0.03,-4.98,1.71,8.38,0.0,0.0,0.0,-4.45,1.82,8.54
1738248575.6565316,104257,0,0,,0.0,-0.16,0.2,0.84,0.48,0.04,0.1,-0.03,-4.63,2.05,8.49,0.0,0.0,0.0,-4.46,1.83,8.53
1738248575.6712482,104258,0,0,,0.0,-0.16,0.2,0.84,0.48,0.05,0.16,-0.04,-4.02,1.96,8.79,0.0,0.0,0.0,-4.49,1.83,8.52
1738248575.6873417,104259,0,0,,0.0,-0.16,0.2,0.84,0.48,0.04,0.24,-0.05,-5.01,1.88,8.36,0.0,0.0,0.0,-4.53,1.83,8.49
1738248575.7065885,104260,0,0,,0.0,-0.16,0.2,0.84,0.48,0.04,0.37,-0.09,-4.3,1.82,8.75,0.0,0.0,0.0,-4.56,1.83,8.48
1738248575.720675,104261,0,0,,0.0,-0.16,0.21,0.84,0.48,0.04,0.58,-0.11,-4.55,1.61,8.73,0.0,0.0,0.0,-4.65,1.83,8.43
1738248575.737459,104262,0,0,,0.0,-0.17,0.21,0.83,0.48,0.06,0.69,-0.11,-4.62,1.65,8.56,0.0,0.0,0.0,-4.77,1.82,8.36
1738248575.756687,104263,0,0,,0.0,-0.17,0.21,0.83,0.48,0.08,0.98,-0.14,-4.56,1.66,7.6,0.0,0.0,0.0,-4.85,1.82,8.31
1738248575.771318,104264,0,0,,0.0,-0.19,0.22,0.83,0.48,0.04,1.51,-0.28,-3.43,1.91,11.03,0.0,0.0,0.0,-5.08,1.81,8.18
1738248575.7880292,104265,0,0,,0.0,-0.2,0.23,0.82,0.48,0.01,1.68,-0.28,-7.2,3.58,10.68,0.0,0.0,0.0,-5.37,1.78,8.0
1738248575.8069046,104266,0,0,,0.0,-0.21,0.23,0.82,0.48,-0.09,2.33,-0.54,-3.11,2.6,8.51,0.0,0.0,0.0,-5.55,1.74,7.88
1738248575.8217175,104267,0,0,,0.0,-0.24,0.24,0.81,0.48,-0.32,3.06,-0.85,-5.6,1.62,6.41,0.0,0.0,0.0,-6.01,1.61,7.57
1738248575.8384547,104268,0,0,,0.0,-0.27,0.25,0.8,0.48,-0.42,3.42,-0.95,-3.46,2.35,8.75,0.0,0.0,0.0,-6.56,1.42,7.14
1738248575.857646,104269,0,0,,0.0,-0.31,0.26,0.78,0.47,-0.69,4.4,-1.14,-4.98,1.93,7.69,0.0,0.0,0.0,-6.87,1.3,6.86
1738248575.872288,104270,0,0,,0.0,-0.33,0.27,0.77,0.47,-0.52,5.35,-1.3,-5.77,2.03,10.32,0.0,0.0,0.0,-7.54,1.05,6.17
1738248575.8885703,104271,0,0,,0.0,-0.39,0.29,0.74,0.46,-0.68,6.22,-1.24,-5.41,0.81,12.34,0.0,0.0,0.0,-8.31,0.79,5.14
1738248575.9071162,104272,0,0,,0.0,-0.45,0.31,0.71,0.44,-1.14,7.48,-1.03,-14.85,4.01,17.62,0.0,0.0,0.0,-8.67,0.65,4.53
1738248575.9221282,104273,0,0,,0.0,-0.48,0.31,0.7,0.43,-2.22,6.94,-1.6,-11.53,5.62,16.71,0.0,0.0,0.0,-9.21,0.27,3.33
1738248575.9392812,104274,0,0,,0.0,-0.52,0.32,0.67,0.42,-1.87,5.76,-1.55,-11.4,-4.34,23.13,0.0,0.0,0.0,-9.47,-0.05,2.52
1738248575.9575224,104275,0,0,,0.0,-0.53,0.31,0.66,0.42,0.08,1.18,-1.55,0.06,3.76,17.67,0.0,0.0,0.0,-9.5,-0.19,2.42
1738248575.9727156,104276,0,0,,0.0,-0.54,0.31,0.66,0.43,-0.44,0.76,-1.86,-3.34,5.21,12.61,0.0,0.0,0.0,-9.52,-0.53,2.25
1738248575.9893904,104277,0,0,,0.0,-0.54,0.3,0.65,0.44,-0.15,0.18,-1.64,-1.06,6.47,12.74,0.0,0.0,0.0,-9.5,-0.81,2.26
1738248576.007684,104278,0,0,,0.0,-0.54,0.29,0.65,0.45,-0.15,-0.68,-1.12,-1.52,6.74,11.8,0.0,0.0,0.0,-9.48,-0.91,2.32
1738248576.0221047,104279,0,0,,0.0,-0.54,0.28,0.65,0.45,-0.04,-1.57,-0.72,-2.13,3.98,11.03,0.0,0.0,0.0,-9.4,-1.07,2.56
1738248576.039436,104280,0,0,,0.0,-0.52,0.27,0.66,0.46,0.18,-1.99,-0.58,-2.4,3.28,10.78,0.0,0.0,0.0,-9.27,-1.16,2.96
1738248576.0576627,104281,0,0,,0.0,-0.5,0.26,0.67,0.48,0.58,-2.73,-0.56,-3.47,1.66,9.73,0.0,0.0,0.0,-9.18,-1.19,3.21
1738248576.0723867,104282,0,0,,0.0,-0.49,0.26,0.68,0.48,0.98,-3.36,-0.75,-4.13,0.86,8.36,0.0,0.0,0.0,-8.95,-1.25,3.8
1738248576.0895507,104283,0,0,,0.0,-0.46,0.24,0.69,0.5,1.15,-3.6,-0.79,-4.52,1.19,8.36,0.0,0.0,0.0,-8.63,-1.28,4.46
1738248576.1079326,104284,0,0,,0.0,-0.43,0.23,0.7,0.52,1.38,-4.05,-0.6,-5.28,2.0,8.22,0.0,0.0,0.0,-8.44,-1.27,4.82
1738248576.122569,104285,0,0,,0.0,-0.41,0.22,0.71,0.53,1.52,-4.34,-0.25,-6.26,1.3,8.53,0.0,0.0,0.0,-8.0,-1.18,5.53
1738248576.1400852,104286,0,0,,0.0,-0.37,0.21,0.72,0.55,1.58,-4.48,-0.11,-6.76,0.87,8.89,0.0,0.0,0.0,-7.48,-1.0,6.25
1738248576.1582258,104287,0,0,,0.0,-0.33,0.2,0.73,0.56,1.72,-4.67,0.04,-7.94,-0.79,9.62,0.0,0.0,0.0,-7.19,-0.89,6.59
1738248576.1725323,104288,0,0,,0.0,-0.31,0.19,0.74,0.57,1.72,-4.67,0.26,-8.28,1.57,8.82,0.0,0.0,0.0,-6.57,-0.64,7.25
1738248576.1900835,104289,0,0,,0.0,-0.26,0.18,0.75,0.58,1.64,-4.53,0.56,-8.29,2.16,8.5,0.0,0.0,0.0,-5.93,-0.31,7.8
1738248576.2085917,104290,0,0,,0.0,-0.22,0.17,0.77,0.57,1.59,-4.0,1.53,-8.66,2.56,8.9,0.0,0.0,0.0,-5.63,-0.1,8.02
1738248576.2224193,104291,0,0,,0.0,-0.2,0.17,0.78,0.57,1.38,-3.62,2.58,-11.79,1.7,11.35,0.0,0.0,0.0,-5.03,0.37,8.4
1738248576.2407765,104292,0,0,,0.0,-0.17,0.17,0.8,0.55,1.11,-3.54,2.82,-12.06,0.02,10.88,0.0,0.0,0.0,-4.42,0.8,8.71
1738248576.2583237,104293,0,0,,0.0,-0.13,0.16,0.82,0.54,0.77,-3.33,2.82,-13.53,-2.15,10.43,0.0,0.0,0.0,-4.11,0.98,8.84
1738248576.272963,104294,0,0,,0.0,-0.12,0.15,0.83,0.53,0.45,-3.22,2.59,-14.05,-2.28,10.27,0.0,0.0,0.0,-3.49,1.26,9.07
1738248576.2907205,104295,0,0,,0.0,-0.09,0.14,0.84,0.52,0.35,-3.16,2.47,-14.09,-2.42,10.18,0.0,0.0,0.0,-2.87,1.48,9.25
1738248576.308545,104296,0,0,,0.0,-0.06,0.13,0.85,0.5,0.43,-3.04,2.04,-14.32,-4.76,8.0,0.0,0.0,0.0,-2.57,1.57,9.33
1738248576.3231523,104297,0,0,,0.0,-0.04,0.13,0.85,0.5,0.72,-2.78,1.46,-15.0,-4.99,6.67,0.0,0.0,0.0,-2.0,1.76,9.43
1738248576.3409717,104298,0,0,,0.0,-0.02,0.13,0.86,0.49,0.79,-2.57,1.2,-14.12,-3.51,2.84,0.0,0.0,0.0,-1.52,1.94,9.48
1738248576.3580947,104299,0,0,,0.0,-0.0,0.12,0.86,0.49,0.75,-1.78,0.84,-14.93,-2.59,0.65,0.0,0.0,0.0,-1.34,2.02,9.5
1738248576.3730326,104300,0,0,,0.0,0.01,0.12,0.86,0.49,0.44,-1.09,0.57,-16.11,-3.36,-2.01,0.0,0.0,0.0,-1.09,2.13,9.5
1738248576.3904223,104301,0,0,,0.0,0.01,0.12,0.87,0.49,0.16,-0.66,0.42,-16.0,-4.17,-3.19,0.0,0.0,0.0,-1.0,2.14,9.51
1738248576.4082553,104302,0,0,,0.0,0.0,0.12,0.87,0.49,-0.39,0.37,0.09,-16.22,-4.12,-3.81,0.0,0.0,0.0,-1.03,2.11,9.51
1738248576.422986,104303,0,0,,0.0,-0.01,0.12,0.87,0.49,-0.81,1.28,-0.21,-15.55,-3.44,0.0,0.0,0.0,0.0,-1.24,1.97,9.52
1738248576.440554,104304,0,0,,0.0,-0.02,0.12,0.87,0.49,-0.85,1.55,-0.29,-14.04,-2.95,1.21,0.0,0.0,0.0,-1.53,1.79,9.51
1738248576.4580393,104305,0,0,,0.0,-0.05,0.13,0.86,0.5,-0.22,2.0,-1.22,38.05,-2.39,27.13,0.0,0.0,0.0,-1.73,1.75,9.49
1738248576.4731574,104306,0,0,,0.0,-0.07,0.14,0.85,0.5,-0.24,3.75,-1.47,-19.59,1.48,4.39,0.0,0.0,0.0,-2.51,1.62,9.33
1738248576.4907103,104307,0,0,,0.0,-0.09,0.15,0.84,0.51,-0.43,3.3,-1.34,-22.73,2.84,3.69,0.0,0.0,0.0,-3.05,1.54,9.18
1738248576.5084548,104308,0,0,,0.0,-0.12,0.16,0.84,0.5,-0.1,2.28,-0.14,-1.01,7.81,17.44,0.0,0.0,0.0,-3.26,1.53,9.12
1738248576.5230744,104309,0,0,,0.0,-0.12,0.16,0.84,0.5,-0.04,1.79,0.23,-6.15,-3.01,8.79,0.0,0.0,0.0,-3.62,1.47,8.99
1738248576.540814,104310,0,0,,0.0,-0.13,0.17,0.84,0.5,0.26,1.38,0.26,-6.85,-1.08,16.18,0.0,0.0,0.0,-3.82,1.55,8.89
1738248576.558875,104311,0,0,,0.0,-0.14,0.18,0.84,0.49,0.14,0.79,0.04,-2.96,6.66,5.52,0.0,0.0,0.0,-3.89,1.56,8.86
1738248576.5729563,104312,0,0,,0.0,-0.14,0.18,0.84,0.49,-0.04,0.79,-0.0,-3.99,0.57,8.21,0.0,0.0,0.0,-4.03,1.54,8.8
1738248576.5911834,104313,0,0,,0.0,-0.15,0.18,0.84,0.49,-0.01,0.69,-0.0,-5.34,1.6,8.68,0.0,0.0,0.0,-4.14,1.54,8.75
1738248576.6086125,104314,0,0,,0.0,-0.15,0.18,0.84,0.49,-0.06,0.6,-0.01,-5.99,1.46,9.0,0.0,0.0,0.0,-4.19,1.53,8.72
1738248576.6234016,104315,0,0,,0.0,-0.15,0.18,0.84,0.49,0.12,0.42,0.05,-4.59,0.19,9.95,0.0,0.0,0.0,-4.27,1.55,8.68
1738248576.6407666,104316,0,0,,0.0,-0.15,0.19,0.84,0.49,0.21,0.36,0.12,-5.2,1.54,9.31,0.0,0.0,0.0,-4.32,1.6,8.65
1738248576.658474,104317,0,0,,0.0,-0.15,0.19,0.84,0.49,0.32,0.29,0.17,-5.62,2.0,8.54,0.0,0.0,0.0,-4.34,1.63,8.63
1738248576.6733296,104318,0,0,,0.0,-0.15,0.19,0.84,0.49,0.25,0.18,0.13,-5.47,1.9,8.22,0.0,0.0,0.0,-4.37,1.69,8.61
1738248576.6913753,104319,0,0,,0.0,-0.15,0.2,0.84,0.49,0.21,0.17,0.12,-6.07,1.66,8.5,0.0,0.0,0.0,-4.38,1.73,8.59
1738248576.7087946,104320,0,0,,0.0,-0.15,0.2,0.84,0.49,0.09,0.05,0.06,-4.2,2.5,8.4,0.0,0.0,0.0,-4.38,1.75,8.59
1738248576.7269895,104321,0,0,,0.0,-0.15,0.2,0.84,0.49,-0.01,-0.01,0.01,-4.25,2.21,8.56,0.0,0.0,0.0,-4.38,1.75,8.59
1738248576.7444427,104322,0,0,,0.0,-0.15,0.2,0.84,0.49,-0.05,0.01,-0.0,-4.99,1.65,8.41,0.0,0.0,0.0,-4.38,1.74,8.59
1738248576.760578,104323,0,0,,0.0,-0.15,0.2,0.84,0.49,-0.03,-0.03,0.0,-3.73,1.95,8.78,0.0,0.0,0.0,-4.38,1.74,8.59
1738248576.7788036,104324,0,0,,0.0,-0.15,0.2,0.84,0.49,-0.02,-0.01,0.0,-5.01,1.76,8.31,0.0,0.0,0.0,-4.38,1.74,8.59
1738248576.7971013,104325,0,0,,0.0,-0.15,0.19,0.84,0.49,0.0,-0.02,-0.01,-4.1,1.85,8.69,0.0,0.0,0.0,-4.37,1.74,8.6
1738248576.8116207,104326,0,0,,0.0,-0.15,0.2,0.84,0.49,0.03,0.0,-0.0,-4.86,1.76,8.3,0.0,0.0,0.0,-4.37,1.74,8.6
1738248576.8266711,104327,0,0,,0.0,-0.15,0.2,0.84,0.49,0.05,-0.03,0.0,-4.63,1.6,8.63,0.0,0.0,0.0,-4.37,1.74,8.6
1738248576.844462,104328,0,0,,0.0,-0.15,0.2,0.84,0.49,0.07,-0.02,0.0,-4.39,1.92,8.44,0.0,0.0,0.0,-4.36,1.75,8.6
1738248576.860658,104329,0,0,,0.0,-0.15,0.2,0.84,0.49,0.08,-0.01,0.01,-3.76,1.96,8.77,0.0,0.0,0.0,-4.37,1.77,8.59
1738248576.8754592,104330,0,0,,0.0,-0.15,0.2,0.84,0.49,0.09,0.02,0.01,-4.65,1.85,8.21,0.0,0.0,0.0,-4.37,1.78,8.59
1738248576.8937345,104331,0,0,,0.0,-0.15,0.2,0.84,0.49,0.1,0.02,0.01,-4.11,1.99,8.75,0.0,0.0,0.0,-4.37,1.8,8.59
1738248576.9108737,104332,0,0,,0.0,-0.15,0.2,0.84,0.49,0.11,0.03,0.02,-4.38,1.51,8.43,0.0,0.0,0.0,-4.38,1.82,8.58
1738248576.9250817,104333,0,0,,0.0,-0.15,0.2,0.84,0.49,0.11,0.03,0.03,-3.81,1.92,8.82,0.0,0.0,0.0,-4.38,1.83,8.57
1738248576.943752,104334,0,0,,0.0,-0.15,0.2,0.84,0.49,0.1,0.05,0.03,-4.52,2.11,8.42,0.0,0.0,0.0,-4.39,1.85,8.57
1738248576.9609015,104335,0,0,,0.0,-0.15,0.2,0.84,0.49,0.09,0.05,0.02,-4.46,1.82,8.53,0.0,0.0,0.0,-4.39,1.86,8.56
1738248576.9750662,104336,0,0,,0.0,-0.15,0.2,0.84,0.49,0.07,0.09,-0.0,-4.59,2.0,8.61,0.0,0.0,0.0,-4.4,1.87,8.55
1738248576.994259,104337,0,0,,0.0,-0.15,0.2,0.84,0.49,0.06,0.1,-0.02,-3.73,1.89,8.79,0.0,0.0,0.0,-4.42,1.88,8.54
1738248577.01055,104338,0,0,,0.0,-0.15,0.2,0.84,0.49,0.04,0.15,-0.05,-5.31,1.93,8.12,0.0,0.0,0.0,-4.44,1.88,8.53
1738248577.0257342,104339,0,0,,0.0,-0.15,0.2,0.83,0.49,0.04,0.21,-0.07,-3.83,2.11,8.59,0.0,0.0,0.0,-4.46,1.88,8.52
1738248577.0441353,104340,0,0,,0.0,-0.16,0.21,0.83,0.49,0.04,0.29,-0.09,-4.11,2.14,8.71,0.0,0.0,0.0,-4.52,1.88,8.49
1738248577.061003,104341,0,0,,0.0,-0.16,0.21,0.83,0.49,0.04,0.45,-0.13,-3.96,2.07,8.58,0.0,0.0,0.0,-4.61,1.87,8.44
1738248577.075339,104342,0,0,,0.0,-0.16,0.21,0.83,0.49,0.06,0.68,-0.17,-4.37,1.8,8.56,0.0,0.0,0.0,-4.67,1.87,8.41
1738248577.0944657,104343,0,0,,0.0,-0.17,0.22,0.83,0.49,0.06,0.81,-0.17,-3.91,1.98,8.96,0.0,0.0,0.0,-4.81,1.87,8.33
1738248577.1107993,104344,0,0,,0.0,-0.18,0.22,0.83,0.49,0.07,1.1,-0.2,-4.89,1.95,8.14,0.0,0.0,0.0,-5.01,1.86,8.21
1738248577.1256502,104345,0,0,,0.0,-0.19,0.22,0.82,0.49,0.02,1.54,-0.34,-1.92,2.49,6.4,0.0,0.0,0.0,-5.14,1.84,8.14
1738248577.14488,104346,0,0,,0.0,-0.2,0.23,0.82,0.49,-0.04,1.84,-0.4,-4.87,1.51,7.09,0.0,0.0,0.0,-5.45,1.79,7.95
1738248577.160897,104347,0,0,,0.0,-0.22,0.24,0.81,0.48,-0.11,2.22,-0.55,-1.72,2.0,6.37,0.0,0.0,0.0,-5.84,1.69,7.68
1738248577.1761048,104348,0,0,,0.0,-0.24,0.25,0.81,0.48,-0.36,2.99,-0.83,-8.69,1.33,8.07,0.0,0.0,0.0,-6.07,1.62,7.52
1738248577.1952455,104349,0,0,,0.0,-0.27,0.26,0.79,0.48,-0.4,3.24,-0.94,-5.19,2.21,8.96,0.0,0.0,0.0,-6.6,1.43,7.1
1738248577.2111835,104350,0,0,,0.0,-0.31,0.27,0.78,0.48,-0.69,4.02,-1.12,-5.79,2.84,7.52,0.0,0.0,0.0,-7.18,1.18,6.56
1738248577.2266245,104351,0,0,,0.0,-0.33,0.27,0.77,0.48,-0.71,4.91,-1.4,-6.18,2.43,8.69,0.0,0.0,0.0,-7.5,1.04,6.22
1738248577.2448404,104352,0,0,,0.0,-0.38,0.29,0.74,0.47,-0.94,5.65,-1.56,-5.79,-1.22,11.86,0.0,0.0,0.0,-8.22,0.69,5.29
1738248577.2616348,104353,0,0,,0.0,-0.45,0.31,0.71,0.45,-0.75,7.76,-1.61,-14.56,7.3,17.78,0.0,0.0,0.0,-8.94,0.31,3.99
1738248577.2770166,104354,0,0,,0.0,-0.48,0.32,0.69,0.44,-1.64,7.74,-2.15,-15.09,5.07,16.66,0.0,0.0,0.0,-9.22,0.06,3.32
1738248577.2952065,104355,0,0,,0.0,-0.54,0.32,0.65,0.43,-1.68,7.19,-2.44,-12.73,-1.54,24.21,0.0,0.0,0.0,-9.56,-0.42,2.11
1738248577.3120337,104356,0,0,,0.0,-0.56,0.32,0.63,0.44,-0.28,3.56,-1.88,-15.13,1.31,21.63,0.0,0.0,0.0,-9.62,-0.77,1.7
1738248577.3266964,104357,0,0,,0.0,-0.56,0.32,0.62,0.44,0.58,0.51,-1.65,-0.06,7.19,16.06,0.0,0.0,0.0,-9.62,-0.91,1.65
1738248577.3450103,104358,0,0,,0.0,-0.56,0.31,0.62,0.45,0.07,0.46,-1.64,-2.5,6.63,12.63,0.0,0.0,0.0,-9.59,-1.19,1.62
1738248577.3617141,104359,0,0,,0.0,-0.56,0.31,0.62,0.46,0.13,-0.53,-0.97,-2.1,7.63,12.25,0.0,0.0,0.0,-9.55,-1.34,1.76
1738248577.3764362,104360,0,0,,0.0,-0.56,0.3,0.62,0.46,0.05,-1.35,-0.42,-2.03,2.25,10.44,0.0,0.0,0.0,-9.52,-1.38,1.88
1738248577.3950813,104361,0,0,,0.0,-0.55,0.3,0.63,0.47,0.29,-1.72,-0.34,-2.45,1.37,10.06,0.0,0.0,0.0,-9.43,-1.42,2.25
1738248577.4114835,104362,0,0,,0.0,-0.53,0.29,0.64,0.49,0.64,-2.5,-0.33,-2.63,1.41,9.71,0.0,0.0,0.0,-9.29,-1.45,2.75
1738248577.4268322,104363,0,0,,0.0,-0.52,0.28,0.64,0.49,0.73,-3.22,-0.35,-3.21,-0.17,8.3,0.0,0.0,0.0,-9.2,-1.46,3.05
1738248577.4449904,104364,0,0,,0.0,-0.49,0.27,0.66,0.51,0.81,-3.51,-0.32,-3.59,-0.66,7.95,0.0,0.0,0.0,-8.95,-1.46,3.71
1738248577.461986,104365,0,0,,0.0,-0.46,0.25,0.67,0.52,0.98,-4.02,-0.2,-4.71,-0.61,8.31,0.0,0.0,0.0,-8.62,-1.41,4.45
1738248577.4774663,104366,0,0,,0.0,-0.44,0.24,0.68,0.53,1.02,-4.51,-0.05,-5.09,-0.46,7.58,0.0,0.0,0.0,-8.41,-1.37,4.83
1738248577.495442,104367,0,0,,0.0,-0.4,0.22,0.7,0.55,1.03,-4.64,0.03,-6.66,-0.4,8.33,0.0,0.0,0.0,-7.94,-1.25,5.61
1738248577.5118425,104368,0,0,,0.0,-0.36,0.21,0.72,0.56,1.16,-4.91,0.3,-7.25,-0.25,8.7,0.0,0.0,0.0,-7.37,-1.05,6.37
1738248577.5272574,104369,0,0,,0.0,-0.34,0.2,0.73,0.56,1.09,-4.99,0.76,-8.17,2.88,8.14,0.0,0.0,0.0,-7.06,-0.93,6.73
1738248577.546264,104370,0,0,,0.0,-0.3,0.18,0.75,0.56,1.0,-4.91,1.17,-9.04,3.45,7.96,0.0,0.0,0.0,-6.42,-0.62,7.38
1738248577.5623877,104371,0,0,,0.0,-0.26,0.17,0.77,0.56,0.92,-4.54,2.13,-9.17,2.84,7.62,0.0,0.0,0.0,-5.79,-0.2,7.9
1738248577.5773888,104372,0,0,,0.0,-0.24,0.17,0.78,0.55,1.14,-4.01,2.79,-13.88,-0.28,12.47,0.0,0.0,0.0,-5.48,0.03,8.12
1738248577.5963972,104373,0,0,,0.0,-0.2,0.16,0.8,0.54,1.18,-4.05,2.81,-14.56,-4.11,11.24,0.0,0.0,0.0,-4.81,0.49,8.52
1738248577.612669,104374,0,0,,0.0,-0.16,0.16,0.82,0.53,1.19,-3.99,2.11,-16.07,-4.26,11.25,0.0,0.0,0.0,-4.12,0.85,8.85
1738248577.62779,104375,0,0,,0.0,-0.14,0.15,0.82,0.53,0.98,-3.97,1.42,-17.33,-2.11,10.59,0.0,0.0,0.0,-3.77,0.99,8.99
1738248577.6460314,104376,0,0,,0.0,-0.1,0.14,0.83,0.53,0.9,-3.93,1.26,-16.75,-2.31,6.58,0.0,0.0,0.0,-3.06,1.22,9.23
1738248577.6625755,104377,0,0,,0.0,-0.07,0.13,0.84,0.53,0.81,-3.53,1.01,-16.51,-2.19,5.43,0.0,0.0,0.0,-2.43,1.42,9.39
1738248577.6777644,104378,0,0,,0.0,-0.05,0.13,0.84,0.52,0.84,-2.79,0.91,-17.01,-2.81,3.75,0.0,0.0,0.0,-2.16,1.52,9.44
1738248577.6967232,104379,0,0,,0.0,-0.03,0.12,0.84,0.52,0.78,-2.42,0.84,-18.19,-4.81,1.71,0.0,0.0,0.0,-1.73,1.68,9.5
1738248577.7126663,104380,0,0,,0.0,-0.02,0.12,0.85,0.52,0.44,-1.73,0.57,-18.48,-4.71,0.48,0.0,0.0,0.0,-1.43,1.76,9.54
1738248577.7278593,104381,0,0,,0.0,-0.01,0.11,0.85,0.52,0.03,-0.9,0.39,-18.09,-4.41,-4.57,0.0,0.0,0.0,-1.34,1.76,9.55
1738248577.7469368,104382,0,0,,0.0,-0.01,0.11,0.85,0.51,-0.08,-0.34,0.35,-17.64,-3.73,-5.39,0.0,0.0,0.0,-1.32,1.74,9.55
1738248577.7632828,104383,0,0,,0.0,-0.03,0.11,0.85,0.51,-0.74,1.04,0.41,-16.47,-1.57,-3.46,0.0,0.0,0.0,-1.55,1.56,9.55
1738248577.7780626,104384,0,0,,0.0,-0.04,0.11,0.85,0.51,-1.19,1.37,0.34,-3.02,-3.65,6.52,0.0,0.0,0.0,-1.67,1.46,9.55
1738248577.7966533,104385,0,0,,0.0,-0.07,0.11,0.85,0.51,-0.69,2.19,-0.46,-15.76,-3.65,11.33,0.0,0.0,0.0,-2.24,1.22,9.46
1738248577.8134198,104386,0,0,,0.0,-0.1,0.12,0.84,0.51,-1.2,3.3,-1.07,-8.35,-9.07,6.02,0.0,0.0,0.0,-2.8,1.04,9.33
1738248577.8277493,104387,0,0,,0.0,-0.1,0.13,0.84,0.51,0.36,2.01,-0.06,-9.17,-0.31,7.08,0.0,0.0,0.0,-2.98,1.07,9.27
1738248577.8465104,104388,0,0,,0.0,-0.12,0.14,0.84,0.51,0.38,1.97,-0.21,-7.17,-1.46,12.04,0.0,0.0,0.0,-3.33,1.11,9.15
1738248577.863222,104389,0,0,,0.0,-0.13,0.15,0.84,0.51,0.56,1.56,0.1,-3.82,-1.88,6.56,0.0,0.0,0.0,-3.6,1.23,9.03
1738248577.877915,104390,0,0,,0.0,-0.13,0.16,0.84,0.51,0.57,1.34,0.47,-9.58,2.78,8.23,0.0,0.0,0.0,-3.71,1.3,8.98
1738248577.8964272,104391,0,0,,0.0,-0.14,0.16,0.84,0.5,0.44,0.94,0.18,-4.75,4.06,10.45,0.0,0.0,0.0,-3.87,1.35,8.9
1738248577.913248,104392,0,0,,0.0,-0.14,0.17,0.84,0.5,-0.05,0.92,-0.06,-5.3,2.75,9.01,0.0,0.0,0.0,-4.03,1.33,8.83
1738248577.927761,104393,0,0,,0.0,-0.15,0.17,0.83,0.5,0.03,0.73,-0.04,-4.29,1.4,9.53,0.0,0.0,0.0,-4.09,1.33,8.81
1738248577.9466343,104394,0,0,,0.0,-0.15,0.17,0.83,0.5,0.02,0.73,0.0,-5.85,0.0,9.2,0.0,0.0,0.0,-4.2,1.35,8.75
1738248577.9634328,104395,0,0,,0.0,-0.15,0.18,0.83,0.5,0.23,0.51,0.13,-4.85,1.15,9.11,0.0,0.0,0.0,-4.28,1.4,8.7
1738248577.9779694,104396,0,0,,0.0,-0.16,0.18,0.83,0.5,0.38,0.34,0.22,-5.75,0.61,9.45,0.0,0.0,0.0,-4.31,1.44,8.68
1738248577.9969258,104397,0,0,,0.0,-0.15,0.19,0.83,0.5,0.4,0.21,0.23,-5.01,1.86,8.85,0.0,0.0,0.0,-4.33,1.53,8.66
1738248578.0130057,104398,0,0,,0.0,-0.15,0.19,0.83,0.5,0.33,0.12,0.19,-5.49,1.8,8.63,0.0,0.0,0.0,-4.34,1.59,8.64
1738248578.0280452,104399,0,0,,0.0,-0.15,0.19,0.83,0.5,0.22,0.02,0.14,-5.18,1.49,8.27,0.0,0.0,0.0,-4.34,1.62,8.64
1738248578.0469584,104400,0,0,,0.0,-0.15,0.19,0.83,0.5,0.16,0.01,0.11,-4.33,2.07,8.51,0.0,0.0,0.0,-4.33,1.65,8.64
1738248578.0634282,104401,0,0,,0.0,-0.15,0.19,0.83,0.5,0.05,-0.04,0.07,-3.83,1.89,8.8,0.0,0.0,0.0,-4.32,1.66,8.64
1738248578.0779235,104402,0,0,,0.0,-0.15,0.19,0.83,0.49,-0.01,-0.01,0.05,-4.35,1.77,8.73,0.0,0.0,0.0,-4.32,1.66,8.64
1738248578.0967627,104403,0,0,,0.0,-0.15,0.19,0.83,0.49,-0.02,-0.03,0.03,-4.63,1.3,8.51,0.0,0.0,0.0,-4.32,1.66,8.64
1738248578.113246,104404,0,0,,0.0,-0.15,0.19,0.83,0.49,-0.01,-0.01,0.03,-4.35,1.73,8.65,0.0,0.0,0.0,-4.31,1.66,8.64
1738248578.1284811,104405,0,0,,0.0,-0.15,0.19,0.83,0.49,0.0,-0.02,0.03,-4.77,1.79,8.52,0.0,0.0,0.0,-4.31,1.66,8.64
1738248578.1470861,104406,0,0,,0.0,-0.15,0.19,0.83,0.49,0.01,-0.02,0.02,-4.06,1.99,8.55,0.0,0.0,0.0,-4.3,1.67,8.65
1738248578.1633458,104407,0,0,,0.0,-0.15,0.19,0.83,0.49,0.02,-0.03,0.01,-4.53,1.36,8.54,0.0,0.0,0.0,-4.29,1.67,8.65
1738248578.17831,104408,0,0,,0.0,-0.15,0.19,0.83,0.49,0.04,-0.03,0.01,-4.66,1.54,8.57,0.0,0.0,0.0,-4.29,1.68,8.65
1738248578.1965573,104409,0,0,,0.0,-0.15,0.19,0.83,0.49,0.06,-0.04,0.03,-4.12,1.56,8.51,0.0,0.0,0.0,-4.29,1.69,8.65
1738248578.2132764,104410,0,0,,0.0,-0.15,0.19,0.83,0.49,0.09,0.01,0.04,-5.13,1.51,8.58,0.0,0.0,0.0,-4.28,1.71,8.65
1738248578.227864,104411,0,0,,0.0,-0.15,0.19,0.83,0.49,0.1,0.03,0.05,-4.65,1.76,8.31,0.0,0.0,0.0,-4.29,1.72,8.64
1738248578.2471285,104412,0,0,,0.0,-0.15,0.19,0.83,0.49,0.11,0.03,0.05,-3.85,2.13,8.62,0.0,0.0,0.0,-4.29,1.74,8.64
1738248578.2639656,104413,0,0,,0.0,-0.15,0.2,0.83,0.49,0.1,0.04,0.06,-4.31,1.86,8.65,0.0,0.0,0.0,-4.29,1.77,8.63
1738248578.2783632,104414,0,0,,0.0,-0.15,0.2,0.83,0.49,0.11,0.05,0.05,-4.32,2.11,8.48,0.0,0.0,0.0,-4.3,1.78,8.63
1738248578.2970586,104415,0,0,,0.0,-0.15,0.2,0.83,0.49,0.11,0.05,0.06,-4.88,1.69,8.37,0.0,0.0,0.0,-4.31,1.8,8.62
1738248578.3136547,104416,0,0,,0.0,-0.15,0.2,0.83,0.49,0.11,0.08,0.04,-4.26,1.91,8.73,0.0,0.0,0.0,-4.32,1.82,8.61
1738248578.3287678,104417,0,0,,0.0,-0.15,0.2,0.83,0.49,0.12,0.1,0.05,-4.3,2.09,8.74,0.0,0.0,0.0,-4.32,1.84,8.6
1738248578.3471508,104418,0,0,,0.0,-0.15,0.2,0.83,0.49,0.11,0.13,0.04,-4.0,2.08,8.8,0.0,0.0,0.0,-4.35,1.86,8.58
1738248578.3640432,104419,0,0,,0.0,-0.15,0.2,0.83,0.49,0.11,0.2,0.02,-4.81,1.75,8.33,0.0,0.0,0.0,-4.38,1.88,8.56
1738248578.379169,104420,0,0,,0.0,-0.15,0.2,0.83,0.49,0.11,0.3,-0.04,-3.93,2.17,8.73,0.0,0.0,0.0,-4.41,1.88,8.55
1738248578.3976562,104421,0,0,,0.0,-0.15,0.21,0.83,0.49,0.1,0.39,-0.07,-4.42,2.09,8.58,0.0,0.0,0.0,-4.48,1.9,8.51
1738248578.4143574,104422,0,0,,0.0,-0.16,0.21,0.83,0.49,0.08,0.62,-0.16,-4.66,1.76,8.49,0.0,0.0,0.0,-4.6,1.89,8.44
1738248578.4288151,104423,0,0,,0.0,-0.16,0.21,0.83,0.49,0.07,0.92,-0.22,-4.44,2.12,8.23,0.0,0.0,0.0,-4.68,1.89,8.4
1738248578.447585,104424,0,0,,0.0,-0.17,0.22,0.83,0.49,0.05,1.1,-0.27,-4.05,2.17,8.57,0.0,0.0,0.0,-4.88,1.87,8.29
1738248578.4644458,104425,0,0,,0.0,-0.19,0.22,0.82,0.49,-0.02,1.53,-0.42,-2.74,2.65,6.56,0.0,0.0,0.0,-5.16,1.81,8.13
1738248578.4790254,104426,0,0,,0.0,-0.2,0.23,0.82,0.49,-0.15,2.04,-0.55,-6.32,3.44,9.52,0.0,0.0,0.0,-5.33,1.77,8.03
1738248578.4972188,104427,0,0,,0.0,-0.22,0.24,0.81,0.49,-0.19,2.21,-0.63,-4.18,3.02,7.96,0.0,0.0,0.0,-5.73,1.66,7.78
1738248578.5142655,104428,0,0,,0.0,-0.25,0.24,0.8,0.49,-0.47,2.98,-0.94,-7.93,1.96,9.03,0.0,0.0,0.0,-6.21,1.47,7.44
1738248578.529696,104429,0,0,,0.0,-0.26,0.25,0.79,0.49,-0.68,3.55,-1.08,-2.89,1.86,7.02,0.0,0.0,0.0,-6.47,1.35,7.23
1738248578.5479858,104430,0,0,,0.0,-0.3,0.26,0.78,0.49,-0.81,3.86,-1.17,-4.59,1.87,7.71,0.0,0.0,0.0,-7.04,1.08,6.73
1738248578.5644703,104431,0,0,,0.0,-0.35,0.27,0.76,0.48,-0.81,4.62,-1.46,-4.62,2.57,8.07,0.0,0.0,0.0,-7.69,0.75,6.03
1738248578.5800183,104432,0,0,,0.0,-0.37,0.28,0.74,0.48,-0.91,6.32,-1.92,-9.67,-0.79,13.47,0.0,0.0,0.0,-8.06,0.55,5.55
1738248578.598064,104433,0,0,,0.0,-0.43,0.3,0.71,0.47,-1.04,7.13,-1.79,-11.38,2.1,12.99,0.0,0.0,0.0,-8.78,0.15,4.36
1738248578.6146255,104434,0,0,,0.0,-0.5,0.32,0.67,0.45,-1.08,7.94,-1.96,-9.23,6.46,13.57,0.0,0.0,0.0,-9.35,-0.28,2.92
1738248578.6296072,104435,0,0,,0.0,-0.53,0.33,0.64,0.44,-1.06,8.99,-2.24,-10.18,5.03,16.33,0.0,0.0,0.0,-9.56,-0.51,2.09
1738248578.6480849,104436,0,0,,0.0,-0.58,0.35,0.6,0.43,-0.58,8.16,-1.75,-16.3,10.62,23.6,0.0,0.0,0.0,-9.73,-0.76,0.88
1738248578.665475,104437,0,0,,0.0,-0.58,0.34,0.6,0.43,-0.21,1.21,-0.61,-14.5,9.66,22.84,0.0,0.0,0.0,-9.72,-0.87,0.87
1738248578.6798368,104438,0,0,,0.0,-0.58,0.33,0.6,0.43,-0.93,-1.41,-0.48,2.51,5.82,10.01,0.0,0.0,0.0,-9.71,-0.92,1.0
1738248578.6978126,104439,0,0,,0.0,-0.58,0.32,0.61,0.44,-0.75,-1.24,-0.74,-2.61,2.16,10.84,0.0,0.0,0.0,-9.66,-1.07,1.25
1738248578.7147436,104440,0,0,,0.0,-0.56,0.31,0.62,0.45,0.24,-2.05,-0.74,-3.54,3.74,11.4,0.0,0.0,0.0,-9.58,-1.21,1.69
1738248578.729776,104441,0,0,,0.0,-0.56,0.3,0.63,0.46,0.2,-3.13,-0.94,-2.71,-0.11,9.31,0.0,0.0,0.0,-9.51,-1.3,1.98
1738248578.7474914,104442,0,0,,0.0,-0.53,0.28,0.64,0.48,0.53,-3.51,-0.97,-2.28,0.91,7.67,0.0,0.0,0.0,-9.32,-1.44,2.66
1738248578.7646866,104443,0,0,,0.0,-0.51,0.27,0.65,0.5,0.96,-3.9,-0.82,-2.82,1.59,7.7,0.0,0.0,0.0,-9.06,-1.51,3.4
1738248578.7798119,104444,0,0,,0.0,-0.49,0.26,0.66,0.51,0.94,-4.31,-0.43,-4.24,1.54,7.79,0.0,0.0,0.0,-8.91,-1.52,3.79
1738248578.7980988,104445,0,0,,0.0,-0.46,0.24,0.68,0.52,0.95,-4.5,-0.24,-4.98,1.14,7.66,0.0,0.0,0.0,-8.53,-1.46,4.59
1738248578.8145275,104446,0,0,,0.0,-0.42,0.22,0.7,0.54,1.04,-4.72,0.14,-5.42,1.15,8.0,0.0,0.0,0.0,-8.08,-1.32,5.39
1738248578.829793,104447,0,0,,0.0,-0.4,0.22,0.71,0.54,1.13,-4.9,0.54,-6.81,0.52,8.75,0.0,0.0,0.0,-7.82,-1.22,5.78
1738248578.8480732,104448,0,0,,0.0,-0.36,0.2,0.73,0.55,1.16,-4.99,0.68,-8.26,2.15,9.18,0.0,0.0,0.0,-7.24,-0.97,6.54
1738248578.8649685,104449,0,0,,0.0,-0.31,0.19,0.75,0.56,1.05,-5.1,1.1,-8.16,2.64,8.78,0.0,0.0,0.0,-6.58,-0.66,7.23
1738248578.8803895,104450,0,0,,0.0,-0.29,0.18,0.76,0.55,1.05,-4.82,1.87,-8.65,2.55,8.34,0.0,0.0,0.0,-6.25,-0.47,7.53
1738248578.898328,104451,0,0,,0.0,-0.25,0.17,0.78,0.55,1.08,-4.54,2.21,-9.78,1.0,9.82,0.0,0.0,0.0,-5.6,-0.03,8.04
1738248578.915365,104452,0,0,,0.0,-0.2,0.17,0.8,0.54,1.32,-4.0,2.62,-11.46,0.69,12.0,0.0,0.0,0.0,-4.95,0.45,8.45
1738248578.9301736,104453,0,0,,0.0,-0.18,0.16,0.81,0.53,1.41,-4.01,2.7,-13.26,-1.45,12.17,0.0,0.0,0.0,-4.6,0.69,8.62
1738248578.94855,104454,0,0,,0.0,-0.14,0.16,0.83,0.52,1.45,-3.95,2.6,-14.71,-1.51,13.26,0.0,0.0,0.0,-3.89,1.14,8.92
1738248578.9652488,104455,0,0,,0.0,-0.1,0.15,0.84,0.51,1.47,-3.97,2.15,-15.25,-6.13,12.46,0.0,0.0,0.0,-3.14,1.55,9.15
1738248578.9807768,104456,0,0,,0.0,-0.08,0.15,0.84,0.51,1.73,-3.99,1.05,-14.88,-9.16,11.29,0.0,0.0,0.0,-2.77,1.73,9.24
1738248578.9980998,104457,0,0,,0.0,-0.04,0.15,0.84,0.52,1.81,-3.95,0.38,-14.44,-5.37,7.83,0.0,0.0,0.0,-2.06,2.06,9.36
1738248579.0156972,104458,0,0,,0.0,0.0,0.14,0.84,0.52,1.73,-3.63,-0.46,-14.24,-3.05,6.17,0.0,0.0,0.0,-1.45,2.34,9.4
1738248579.0303469,104459,0,0,,0.0,0.02,0.14,0.84,0.53,1.34,-2.93,-0.57,-14.28,0.71,2.1,0.0,0.0,0.0,-1.2,2.46,9.41
1738248579.0486915,104460,0,0,,0.0,0.04,0.14,0.83,0.53,1.33,-2.39,-0.46,-15.51,-0.59,-2.86,0.0,0.0,0.0,-0.84,2.7,9.38
1738248579.0654726,104461,0,0,,0.0,0.05,0.14,0.83,0.53,1.09,-1.1,-0.07,-17.1,-0.09,-3.33,0.0,0.0,0.0,-0.69,2.83,9.36
1738248579.080867,104462,0,0,,0.0,0.05,0.14,0.83,0.53,-0.5,0.2,0.32,-16.8,-2.56,-5.13,0.0,0.0,0.0,-0.7,2.79,9.37
1738248579.0984323,104463,0,0,,0.0,0.03,0.14,0.84,0.53,-1.04,0.83,0.42,-14.71,-2.81,-0.83,0.0,0.0,0.0,-0.88,2.58,9.41
1738248579.1160219,104464,0,0,,0.0,0.01,0.13,0.84,0.52,-1.53,1.65,0.37,-13.7,-1.41,3.52,0.0,0.0,0.0,-1.17,2.3,9.45
1738248579.1314077,104465,0,0,,0.0,-0.0,0.13,0.84,0.52,-1.63,1.85,0.72,-12.97,0.51,5.53,0.0,0.0,0.0,-1.33,2.15,9.47
1738248579.1487088,104466,0,0,,0.0,-0.02,0.13,0.85,0.51,-1.65,1.79,0.94,27.15,-1.55,17.34,0.0,0.0,0.0,-1.6,1.91,9.48
1738248579.1658576,104467,0,0,,0.0,-0.06,0.13,0.85,0.51,-0.79,2.75,-0.56,30.56,10.18,39.28,0.0,0.0,0.0,-2.29,1.64,9.39
1738248579.1814563,104468,0,0,,0.0,-0.07,0.14,0.84,0.51,-0.55,3.11,-0.92,-12.74,-12.32,4.81,0.0,0.0,0.0,-2.58,1.57,9.32
1738248579.1983259,104469,0,0,,0.0,-0.09,0.15,0.84,0.51,0.09,2.16,-0.49,-3.84,1.13,6.74,0.0,0.0,0.0,-2.98,1.57,9.2
1738248579.2159088,104470,0,0,,0.0,-0.11,0.16,0.84,0.51,-0.43,2.45,-0.18,-0.76,-1.98,20.7,0.0,0.0,0.0,-3.4,1.49,9.07
1738248579.2308235,104471,0,0,,0.0,-0.12,0.16,0.84,0.51,0.4,1.62,0.04,-1.77,1.21,9.39,0.0,0.0,0.0,-3.54,1.53,9.01
1738248579.2485032,104472,0,0,,0.0,-0.13,0.17,0.84,0.5,0.38,1.64,0.3,-12.1,6.49,19.63,0.0,0.0,0.0,-3.78,1.6,8.9
1738248579.2659836,104473,0,0,,0.0,-0.14,0.18,0.83,0.5,-0.2,1.19,-0.09,-2.13,4.69,6.2,0.0,0.0,0.0,-3.99,1.55,8.82
1738248579.2805512,104474,0,0,,0.0,-0.14,0.18,0.83,0.5,-0.31,0.97,-0.22,-5.53,2.1,9.71,0.0,0.0,0.0,-4.07,1.51,8.78
1738248579.298435,104475,0,0,,0.0,-0.15,0.18,0.83,0.5,-0.26,0.78,-0.2,-6.05,2.25,9.71,0.0,0.0,0.0,-4.2,1.45,8.73
1738248579.3163702,104476,0,0,,0.0,-0.15,0.18,0.83,0.5,-0.2,0.55,-0.09,-4.4,-0.44,9.46,0.0,0.0,0.0,-4.25,1.43,8.71
1738248579.3316476,104477,0,0,,0.0,-0.16,0.18,0.83,0.5,0.13,0.47,0.07,-6.08,0.69,8.82,0.0,0.0,0.0,-4.33,1.44,8.67
1738248579.3484342,104478,0,0,,0.0,-0.16,0.19,0.83,0.5,0.26,0.28,0.15,-5.8,2.24,8.45,0.0,0.0,0.0,-4.37,1.51,8.64
1738248579.3665807,104479,0,0,,0.0,-0.16,0.19,0.83,0.5,0.31,0.24,0.17,-6.15,1.63,8.4,0.0,0.0,0.0,-4.39,1.54,8.63
1738248579.3819082,104480,0,0,,0.0,-0.16,0.19,0.83,0.5,0.25,0.12,0.15,-5.15,1.81,8.45,0.0,0.0,0.0,-4.4,1.6,8.61
1738248579.399443,104481,0,0,,0.0,-0.16,0.19,0.83,0.5,0.18,0.09,0.12,-4.46,2.74,8.61,0.0,0.0,0.0,-4.41,1.64,8.6
1738248579.416406,104482,0,0,,0.0,-0.16,0.19,0.83,0.5,0.04,0.02,0.04,-3.91,1.93,8.8,0.0,0.0,0.0,-4.41,1.64,8.59
1738248579.4373093,104483,0,0,,0.0,-0.16,0.19,0.83,0.5,-0.02,-0.0,0.01,-3.98,1.7,8.94,0.0,0.0,0.0,-4.41,1.64,8.59
1738248579.4581566,104484,0,0,,0.0,-0.16,0.19,0.83,0.5,-0.02,0.0,0.01,-4.92,1.4,8.47,0.0,0.0,0.0,-4.41,1.64,8.6
1738248579.4740767,104485,0,0,,0.0,-0.16,0.19,0.83,0.5,0.01,-0.02,0.0,-4.11,1.83,8.9,0.0,0.0,0.0,-4.41,1.64,8.6
1738248579.4900103,104486,0,0,,0.0,-0.15,0.19,0.83,0.5,0.04,0.0,0.01,-4.79,1.45,8.21,0.0,0.0,0.0,-4.41,1.64,8.6
1738248579.508977,104487,0,0,,0.0,-0.15,0.19,0.83,0.5,0.07,-0.03,0.02,-4.18,1.86,8.57,0.0,0.0,0.0,-4.4,1.66,8.6
1738248579.5233831,104488,0,0,,0.0,-0.15,0.19,0.83,0.5,0.1,-0.02,0.02,-4.55,1.71,8.38,0.0,0.0,0.0,-4.4,1.67,8.59
1738248579.539872,104489,0,0,,0.0,-0.15,0.2,0.83,0.5,0.11,-0.02,0.02,-3.96,1.82,8.77,0.0,0.0,0.0,-4.4,1.69,8.59
1738248579.558831,104490,0,0,,0.0,-0.15,0.2,0.83,0.5,0.12,-0.01,0.02,-4.88,1.56,8.27,0.0,0.0,0.0,-4.4,1.71,8.59
1738248579.573274,104491,0,0,,0.0,-0.15,0.2,0.83,0.5,0.13,-0.03,0.03,-4.22,1.93,8.59,0.0,0.0,0.0,-4.4,1.72,8.59
1738248579.5891812,104492,0,0,,0.0,-0.15,0.2,0.83,0.5,0.13,0.0,0.03,-4.58,1.77,8.53,0.0,0.0,0.0,-4.4,1.74,8.58
1738248579.608782,104493,0,0,,0.0,-0.15,0.2,0.83,0.5,0.12,0.0,0.02,-4.08,1.88,8.59,0.0,0.0,0.0,-4.4,1.75,8.58
1738248579.6235497,104494,0,0,,0.0,-0.15,0.2,0.83,0.5,0.11,0.04,0.01,-4.81,1.91,8.45,0.0,0.0,0.0,-4.4,1.77,8.57
1738248579.6393151,104495,0,0,,0.0,-0.15,0.2,0.83,0.5,0.09,0.04,-0.0,-3.82,2.08,8.62,0.0,0.0,0.0,-4.41,1.79,8.57
1738248579.6588678,104496,0,0,,0.0,-0.15,0.2,0.83,0.5,0.08,0.06,-0.02,-4.66,1.84,8.31,0.0,0.0,0.0,-4.41,1.8,8.56
1738248579.6739802,104497,0,0,,0.0,-0.15,0.2,0.83,0.5,0.07,0.06,-0.04,-3.83,1.88,8.7,0.0,0.0,0.0,-4.43,1.8,8.55
1738248579.6900415,104498,0,0,,0.0,-0.15,0.2,0.83,0.5,0.06,0.1,-0.05,-4.82,1.77,8.31,0.0,0.0,0.0,-4.45,1.81,8.54
1738248579.709111,104499,0,0,,0.0,-0.15,0.2,0.83,0.5,0.05,0.16,-0.08,-4.06,2.18,8.63,0.0,0.0,0.0,-4.46,1.81,8.54
1738248579.7236009,104500,0,0,,0.0,-0.15,0.2,0.83,0.5,0.03,0.27,-0.13,-3.97,2.12,8.5,0.0,0.0,0.0,-4.5,1.81,8.51
1738248579.7396781,104501,0,0,,0.0,-0.16,0.21,0.83,0.5,0.02,0.38,-0.15,-3.85,1.68,8.7,0.0,0.0,0.0,-4.58,1.8,8.47
1738248579.7594235,104502,0,0,,0.0,-0.16,0.21,0.82,0.5,0.03,0.62,-0.17,-4.6,1.8,8.67,0.0,0.0,0.0,-4.63,1.79,8.45
1738248579.7736013,104503,0,0,,0.0,-0.17,0.21,0.82,0.5,0.06,0.88,-0.17,-4.54,1.52,8.74,0.0,0.0,0.0,-4.77,1.78,8.37
1738248579.7899215,104504,0,0,,0.0,-0.18,0.22,0.82,0.5,0.06,1.06,-0.2,-4.34,2.08,8.85,0.0,0.0,0.0,-4.97,1.77,8.26
1738248579.8090897,104505,0,0,,0.0,-0.19,0.22,0.82,0.5,0.01,1.5,-0.34,-4.67,2.03,8.39,0.0,0.0,0.0,-5.09,1.76,8.19
1738248579.824174,104506,0,0,,0.0,-0.2,0.23,0.81,0.5,-0.17,2.17,-0.57,-6.67,1.98,10.08,0.0,0.0,0.0,-5.42,1.69,7.99
1738248579.8398058,104507,0,0,,0.0,-0.22,0.24,0.8,0.5,-0.24,2.4,-0.62,-3.44,2.16,8.06,0.0,0.0,0.0,-5.82,1.57,7.72
1738248579.8595104,104508,0,0,,0.0,-0.25,0.25,0.79,0.5,-0.41,3.15,-0.93,-5.44,2.68,9.36,0.0,0.0,0.0,-6.07,1.49,7.55
1738248579.8742747,104509,0,0,,0.0,-0.27,0.25,0.79,0.49,-0.69,4.05,-1.18,-5.11,1.29,7.14,0.0,0.0,0.0,-6.65,1.26,7.09
1738248579.890213,104510,0,0,,0.0,-0.31,0.27,0.77,0.49,-0.76,4.34,-1.32,-4.58,2.5,8.1,0.0,0.0,0.0,-7.28,0.98,6.49
1738248579.9094408,104511,0,0,,0.0,-0.37,0.28,0.74,0.48,-0.8,5.61,-1.53,-4.23,1.86,9.8,0.0,0.0,0.0,-7.63,0.82,6.09
1738248579.9241989,104512,0,0,,0.0,-0.4,0.3,0.73,0.48,-0.53,7.98,-1.46,-13.11,3.49,18.35,0.0,0.0,0.0,-8.44,0.51,4.95
1738248579.94051,104513,0,0,,0.0,-0.47,0.33,0.68,0.46,-0.87,8.64,-1.29,-13.16,4.16,17.47,0.0,0.0,0.0,-9.17,0.21,3.45
1738248579.9596443,104514,0,0,,0.0,-0.53,0.35,0.64,0.43,-0.72,9.13,-1.52,-12.16,6.43,18.55,0.0,0.0,0.0,-9.44,0.05,2.63
1738248579.9742184,104515,0,0,,0.0,-0.56,0.36,0.61,0.42,-1.02,7.84,-1.75,-20.44,0.07,25.94,0.0,0.0,0.0,-9.74,-0.27,1.04
1738248579.990596,104516,0,0,,0.0,-0.58,0.36,0.6,0.42,-0.97,4.24,-1.56,-20.54,6.34,25.36,0.0,0.0,0.0,-9.77,-0.57,0.55
1738248580.0099688,104517,0,0,,0.0,-0.59,0.34,0.6,0.42,-0.43,-1.07,-1.22,3.35,11.62,8.71,0.0,0.0,0.0,-9.76,-0.69,0.65
1738248580.0242631,104518,0,0,,0.0,-0.59,0.34,0.6,0.42,-1.15,-0.64,-0.99,-2.79,1.11,9.54,0.0,0.0,0.0,-9.73,-0.91,0.74
1738248580.0400903,104519,0,0,,0.0,-0.59,0.33,0.61,0.43,-0.27,-1.08,-0.6,-3.05,2.47,9.69,0.0,0.0,0.0,-9.7,-1.02,0.98
1738248580.059567,104520,0,0,,0.0,-0.57,0.31,0.62,0.44,0.03,-1.99,-0.59,-3.29,1.44,9.65,0.0,0.0,0.0,-9.67,-1.07,1.17
1738248580.0743713,104521,0,0,,0.0,-0.56,0.31,0.62,0.45,0.46,-3.1,-0.75,-2.91,1.28,8.54,0.0,0.0,0.0,-9.58,-1.19,1.71
1738248580.0902023,104522,0,0,,0.0,-0.54,0.29,0.64,0.47,0.64,-3.49,-0.76,-2.46,1.28,6.76,0.0,0.0,0.0,-9.41,-1.3,2.39
1738248580.1092715,104523,0,0,,0.0,-0.51,0.28,0.65,0.49,0.92,-3.99,-0.59,-3.16,1.93,6.63,0.0,0.0,0.0,-9.31,-1.33,2.77
1738248580.1246607,104524,0,0,,0.0,-0.5,0.27,0.66,0.49,1.0,-4.45,-0.27,-3.94,1.28,6.46,0.0,0.0,0.0,-9.03,-1.33,3.56
1738248580.1402285,104525,0,0,,0.0,-0.46,0.25,0.68,0.51,1.03,-4.62,-0.1,-4.79,1.47,6.71,0.0,0.0,0.0,-8.67,-1.26,4.39
1738248580.159645,104526,0,0,,0.0,-0.42,0.24,0.7,0.53,1.01,-4.91,0.3,-5.46,0.7,6.7,0.0,0.0,0.0,-8.45,-1.19,4.81
1738248580.174409,104527,0,0,,0.0,-0.4,0.23,0.71,0.53,1.1,-5.07,0.64,-6.89,0.2,7.71,0.0,0.0,0.0,-7.95,-0.99,5.64
1738248580.1907187,104528,0,0,,0.0,-0.36,0.21,0.73,0.54,1.11,-5.15,0.81,-7.58,1.59,7.92,0.0,0.0,0.0,-7.37,-0.73,6.42
1738248580.2095296,104529,0,0,,0.0,-0.31,0.2,0.76,0.54,0.99,-5.12,1.44,-8.51,3.06,6.91,0.0,0.0,0.0,-7.05,-0.56,6.79
1738248580.2250473,104530,0,0,,0.0,-0.29,0.19,0.77,0.54,0.86,-4.65,2.23,-9.48,1.92,7.41,0.0,0.0,0.0,-6.4,-0.17,7.42
1738248580.240336,104531,0,0,,0.0,-0.25,0.18,0.79,0.53,0.88,-4.35,2.43,-14.7,-1.46,12.45,0.0,0.0,0.0,-5.76,0.26,7.92
1738248580.2600482,104532,0,0,,0.0,-0.21,0.18,0.81,0.52,1.12,-4.23,2.47,-15.31,-2.13,11.77,0.0,0.0,0.0,-5.43,0.48,8.15
1738248580.2746303,104533,0,0,,0.0,-0.19,0.17,0.82,0.52,1.15,-4.07,2.0,-16.72,-1.91,11.43,0.0,0.0,0.0,-4.73,0.87,8.54
1738248580.2902515,104534,0,0,,0.0,-0.15,0.16,0.83,0.51,1.14,-3.97,1.79,-17.76,-1.03,11.7,0.0,0.0,0.0,-4.03,1.19,8.85
1738248580.3096375,104535,0,0,,0.0,-0.11,0.15,0.84,0.51,0.8,-3.97,1.32,-17.63,-2.25,10.09,0.0,0.0,0.0,-3.67,1.31,8.99
1738248580.3248317,104536,0,0,,0.0,-0.09,0.15,0.84,0.51,0.76,-3.74,0.59,-15.68,-5.44,7.52,0.0,0.0,0.0,-2.97,1.49,9.22
1738248580.340293,104537,0,0,,0.0,-0.06,0.14,0.84,0.52,0.95,-3.55,0.23,-16.17,-4.89,7.5,0.0,0.0,0.0,-2.34,1.67,9.37
1738248580.3600173,104538,0,0,,0.0,-0.03,0.13,0.84,0.52,1.09,-3.14,-0.31,-14.77,-3.46,4.31,0.0,0.0,0.0,-2.06,1.77,9.42
1738248580.3748062,104539,0,0,,0.0,-0.02,0.13,0.84,0.53,0.92,-2.43,-0.29,-14.14,-1.76,1.16,0.0,0.0,0.0,-1.59,1.94,9.47
1738248580.3911898,104540,0,0,,0.0,-0.0,0.12,0.84,0.53,0.62,-1.9,-0.18,-15.08,-1.95,-1.07,0.0,0.0,0.0,-1.3,2.03,9.5
1738248580.4101448,104541,0,0,,0.0,0.0,0.12,0.84,0.53,0.1,-0.78,0.14,-16.05,-2.31,-4.01,0.0,0.0,0.0,-1.23,2.04,9.51
1738248580.4245644,104542,0,0,,0.0,-0.0,0.12,0.84,0.53,-0.54,0.45,0.39,-16.28,-2.6,-3.47,0.0,0.0,0.0,-1.24,1.98,9.52
1738248580.4406374,104543,0,0,,0.0,-0.01,0.12,0.85,0.52,-0.86,0.99,0.53,-15.8,-2.46,-1.83,0.0,0.0,0.0,-1.44,1.81,9.52
1738248580.4598382,104544,0,0,,0.0,-0.03,0.12,0.85,0.51,-1.32,1.64,0.74,-12.89,-1.61,2.25,0.0,0.0,0.0,-1.58,1.7,9.52
1738248580.4746556,104545,0,0,,0.0,-0.04,0.11,0.85,0.51,-0.9,1.32,0.39,28.34,-1.07,23.71,0.0,0.0,0.0,-1.83,1.51,9.51
1738248580.4907782,104546,0,0,,0.0,-0.07,0.12,0.85,0.51,-0.58,2.77,-0.88,22.61,12.08,38.64,0.0,0.0,0.0,-2.46,1.31,9.4
1738248580.5106804,104547,0,0,,0.0,-0.09,0.14,0.85,0.5,0.38,2.85,-0.02,-12.23,4.7,4.14,0.0,0.0,0.0,-2.72,1.35,9.32
1738248580.52476,104548,0,0,,0.0,-0.1,0.15,0.85,0.5,0.35,2.43,0.89,-6.08,-5.68,11.34,0.0,0.0,0.0,-3.12,1.54,9.16
1738248580.5402644,104549,0,0,,0.0,-0.11,0.16,0.85,0.49,0.19,2.22,0.19,-5.36,-8.12,18.42,0.0,0.0,0.0,-3.46,1.58,9.03
1738248580.5600047,104550,0,0,,0.0,-0.12,0.17,0.85,0.49,0.71,1.35,-0.12,-2.15,3.97,9.26,0.0,0.0,0.0,-3.58,1.63,8.97
1738248580.5744557,104551,0,0,,0.0,-0.13,0.18,0.84,0.49,0.25,1.04,0.2,-11.11,6.34,9.46,0.0,0.0,0.0,-3.78,1.72,8.87
1738248580.5907671,104552,0,0,,0.0,-0.14,0.18,0.84,0.49,-0.15,0.88,-0.12,-4.8,2.91,10.63,0.0,0.0,0.0,-3.95,1.66,8.81
1738248580.6101687,104553,0,0,,0.0,-0.14,0.18,0.84,0.49,-0.43,0.8,-0.3,-2.72,1.23,7.7,0.0,0.0,0.0,-4.02,1.61,8.79
1738248580.6242394,104554,0,0,,0.0,-0.15,0.18,0.84,0.49,-0.4,0.71,-0.29,-5.98,2.17,9.41,0.0,0.0,0.0,-4.16,1.51,8.74
1738248580.640882,104555,0,0,,0.0,-0.15,0.18,0.84,0.49,-0.31,0.57,-0.21,-5.5,-0.34,9.59,0.0,0.0,0.0,-4.25,1.46,8.71
1738248580.659926,104556,0,0,,0.0,-0.16,0.18,0.84,0.49,0.04,0.39,0.01,-5.59,0.95,9.48,0.0,0.0,0.0,-4.29,1.47,8.69
1738248580.6744509,104557,0,0,,0.0,-0.16,0.18,0.84,0.49,0.21,0.19,0.12,-5.41,2.44,9.08,0.0,0.0,0.0,-4.32,1.51,8.67
1738248580.69045,104558,0,0,,0.0,-0.16,0.19,0.84,0.49,0.18,0.15,0.11,-5.68,1.8,8.62,0.0,0.0,0.0,-4.33,1.53,8.66
1738248580.7096682,104559,0,0,,0.0,-0.16,0.19,0.84,0.49,0.17,0.04,0.11,-5.53,1.5,8.31,0.0,0.0,0.0,-4.33,1.57,8.65
1738248580.7243648,104560,0,0,,0.0,-0.15,0.19,0.84,0.49,0.11,-0.05,0.08,-4.38,2.25,8.49,0.0,0.0,0.0,-4.33,1.6,8.65
1738248580.7405267,104561,0,0,,0.0,-0.15,0.19,0.84,0.49,0.09,-0.07,0.06,-4.01,2.1,8.64,0.0,0.0,0.0,-4.32,1.61,8.65
1738248580.7603233,104562,0,0,,0.0,-0.15,0.19,0.84,0.49,0.07,-0.04,0.06,-4.41,1.68,8.65,0.0,0.0,0.0,-4.31,1.62,8.65
1738248580.774362,104563,0,0,,0.0,-0.15,0.19,0.84,0.49,0.06,-0.0,0.04,-4.27,1.7,8.41,0.0,0.0,0.0,-4.3,1.64,8.65
1738248580.7904718,104564,0,0,,0.0,-0.15,0.19,0.84,0.49,0.05,0.03,0.04,-4.52,1.46,8.48,0.0,0.0,0.0,-4.31,1.64,8.65
1738248580.8099015,104565,0,0,,0.0,-0.15,0.19,0.84,0.49,0.02,0.05,0.03,-4.52,1.84,8.42,0.0,0.0,0.0,-4.31,1.65,8.64
1738248580.8245666,104566,0,0,,0.0,-0.15,0.19,0.84,0.49,0.0,0.0,0.03,-4.42,1.73,8.61,0.0,0.0,0.0,-4.31,1.65,8.64
1738248580.8406646,104567,0,0,,0.0,-0.15,0.19,0.84,0.49,0.02,0.01,0.04,-4.6,1.56,8.53,0.0,0.0,0.0,-4.31,1.66,8.64
1738248580.8598108,104568,0,0,,0.0,-0.15,0.19,0.84,0.49,0.05,-0.01,0.04,-4.22,1.75,8.72,0.0,0.0,0.0,-4.31,1.67,8.64
1738248580.87442,104569,0,0,,0.0,-0.15,0.19,0.84,0.49,0.08,0.01,0.05,-4.3,1.81,8.55,0.0,0.0,0.0,-4.3,1.68,8.64
1738248580.890224,104570,0,0,,0.0,-0.15,0.19,0.84,0.49,0.08,0.02,0.05,-5.39,1.24,8.6,0.0,0.0,0.0,-4.31,1.69,8.64
1738248580.90973,104571,0,0,,0.0,-0.15,0.19,0.84,0.48,0.09,0.03,0.05,-4.93,1.63,8.33,0.0,0.0,0.0,-4.3,1.71,8.64
1738248580.9247904,104572,0,0,,0.0,-0.15,0.19,0.84,0.48,0.09,0.02,0.05,-3.5,1.8,8.77,0.0,0.0,0.0,-4.31,1.73,8.63
1738248580.9404626,104573,0,0,,0.0,-0.15,0.19,0.84,0.48,0.09,0.03,0.04,-4.27,1.84,8.79,0.0,0.0,0.0,-4.31,1.74,8.63
1738248580.9593365,104574,0,0,,0.0,-0.15,0.19,0.84,0.48,0.09,0.03,0.02,-4.41,1.96,8.57,0.0,0.0,0.0,-4.32,1.76,8.62
1738248580.9738338,104575,0,0,,0.0,-0.15,0.19,0.84,0.48,0.08,0.05,0.01,-4.68,1.88,8.6,0.0,0.0,0.0,-4.32,1.77,8.61
1738248580.9900274,104576,0,0,,0.0,-0.15,0.2,0.84,0.48,0.08,0.03,0.02,-4.22,1.96,8.62,0.0,0.0,0.0,-4.33,1.78,8.61
1738248581.0094018,104577,0,0,,0.0,-0.15,0.2,0.84,0.48,0.08,0.05,0.01,-4.68,1.65,8.3,0.0,0.0,0.0,-4.33,1.79,8.6
1738248581.0239398,104578,0,0,,0.0,-0.15,0.2,0.84,0.48,0.07,0.06,-0.01,-4.01,2.07,8.91,0.0,0.0,0.0,-4.34,1.81,8.6
1738248581.040122,104579,0,0,,0.0,-0.15,0.2,0.84,0.48,0.06,0.09,-0.02,-4.4,1.73,8.28,0.0,0.0,0.0,-4.35,1.81,8.59
1738248581.058494,104580,0,0,,0.0,-0.15,0.2,0.84,0.48,0.06,0.15,-0.05,-4.15,1.98,8.48,0.0,0.0,0.0,-4.37,1.82,8.58
1738248581.0729034,104581,0,0,,0.0,-0.15,0.2,0.84,0.48,0.04,0.27,-0.08,-4.53,1.96,8.53,0.0,0.0,0.0,-4.41,1.82,8.56
1738248581.0900009,104582,0,0,,0.0,-0.15,0.2,0.84,0.48,0.03,0.37,-0.11,-3.94,1.92,9.02,0.0,0.0,0.0,-4.45,1.82,8.54
1738248581.1091926,104583,0,0,,0.0,-0.16,0.2,0.84,0.48,0.03,0.64,-0.17,-4.56,1.79,8.18,0.0,0.0,0.0,-4.54,1.81,8.49
1738248581.123685,104584,0,0,,0.0,-0.17,0.21,0.83,0.48,0.05,0.93,-0.21,-3.77,1.92,8.81,0.0,0.0,0.0,-4.69,1.8,8.42
1738248581.1403558,104585,0,0,,0.0,-0.17,0.21,0.83,0.48,0.03,1.12,-0.25,-4.67,2.16,8.68,0.0,0.0,0.0,-4.78,1.79,8.36
1738248581.1589248,104586,0,0,,0.0,-0.18,0.22,0.83,0.48,-0.04,1.49,-0.38,-3.33,2.22,8.07,0.0,0.0,0.0,-5.02,1.75,8.23
1738248581.1734414,104587,0,0,,0.0,-0.2,0.22,0.82,0.48,-0.22,2.13,-0.54,-7.86,3.42,9.7,0.0,0.0,0.0,-5.35,1.68,8.04
1738248581.1898205,104588,0,0,,0.0,-0.21,0.23,0.82,0.48,-0.25,2.26,-0.61,-5.1,1.8,7.27,0.0,0.0,0.0,-5.53,1.62,7.92
1738248581.209369,104589,0,0,,0.0,-0.24,0.23,0.81,0.48,-0.49,3.04,-0.92,-8.24,1.51,8.42,0.0,0.0,0.0,-5.98,1.47,7.62
1738248581.2234676,104590,0,0,,0.0,-0.27,0.24,0.8,0.48,-0.63,3.56,-1.12,-3.08,1.96,7.63,0.0,0.0,0.0,-6.5,1.25,7.22
1738248581.2398775,104591,0,0,,0.0,-0.29,0.25,0.79,0.48,-0.75,3.94,-1.25,-7.06,2.84,7.75,0.0,0.0,0.0,-6.79,1.12,6.98
1738248581.2588341,104592,0,0,,0.0,-0.33,0.26,0.77,0.48,-0.89,4.78,-1.66,-4.73,3.02,9.63,0.0,0.0,0.0,-7.4,0.8,6.37
1738248581.2739048,104593,0,0,,0.0,-0.39,0.27,0.74,0.47,-1.18,7.0,-1.88,-9.25,-0.46,12.98,0.0,0.0,0.0,-8.15,0.38,5.43
1738248581.2900498,104594,0,0,,0.0,-0.42,0.28,0.73,0.47,-1.05,7.96,-1.62,-13.01,-0.9,14.26,0.0,0.0,0.0,-8.55,0.2,4.79
1738248581.3097205,104595,0,0,,0.0,-0.48,0.31,0.68,0.45,-0.67,8.58,-2.08,-12.89,3.4,14.03,0.0,0.0,0.0,-9.21,-0.17,3.33
1738248581.3240135,104596,0,0,,0.0,-0.55,0.33,0.63,0.44,-0.51,8.71,-2.06,-14.08,-0.01,21.91,0.0,0.0,0.0,-9.63,-0.59,1.74
1738248581.3402193,104597,0,0,,0.0,-0.57,0.34,0.61,0.43,-0.12,7.06,-1.94,-20.07,-1.04,24.87,0.0,0.0,0.0,-9.71,-0.77,1.08
1738248581.3591037,104598,0,0,,0.0,-0.59,0.34,0.59,0.43,0.06,0.26,-1.19,-0.06,13.93,18.64,0.0,0.0,0.0,-9.72,-1.03,0.73
1738248581.3740156,104599,0,0,,0.0,-0.59,0.33,0.6,0.43,-0.96,-0.71,-0.78,-2.94,1.02,9.21,0.0,0.0,0.0,-9.69,-1.18,0.82
1738248581.390317,104600,0,0,,0.0,-0.59,0.32,0.6,0.43,-0.59,-0.83,-0.34,-1.59,-0.22,9.94,0.0,0.0,0.0,-9.68,-1.22,0.89
1738248581.4091923,104601,0,0,,0.0,-0.58,0.32,0.61,0.44,0.23,-1.59,-0.18,-3.57,0.69,10.96,0.0,0.0,0.0,-9.65,-1.24,1.16
1738248581.424381,104602,0,0,,0.0,-0.57,0.31,0.62,0.45,0.6,-2.71,-0.53,-3.51,0.7,9.95,0.0,0.0,0.0,-9.58,-1.31,1.62
1738248581.4405909,104603,0,0,,0.0,-0.56,0.3,0.62,0.46,0.73,-3.24,-0.65,-3.27,0.86,9.02,0.0,0.0,0.0,-9.51,-1.36,1.93
1738248581.458844,104604,0,0,,0.0,-0.53,0.29,0.64,0.48,0.93,-3.94,-0.57,-3.24,0.57,7.59,0.0,0.0,0.0,-9.33,-1.43,2.64
1738248581.4742064,104605,0,0,,0.0,-0.5,0.27,0.65,0.5,1.03,-4.16,-0.41,-4.36,0.6,7.14,0.0,0.0,0.0,-9.07,-1.44,3.43
1738248581.4904273,104606,0,0,,0.0,-0.49,0.26,0.66,0.51,0.98,-4.51,-0.15,-4.72,0.47,6.95,0.0,0.0,0.0,-8.91,-1.41,3.84
1738248581.5091336,104607,0,0,,0.0,-0.45,0.24,0.68,0.52,1.02,-4.78,0.11,-5.81,1.3,7.3,0.0,0.0,0.0,-8.52,-1.32,4.66
1738248581.5250547,104608,0,0,,0.0,-0.41,0.23,0.7,0.54,1.11,-5.02,0.53,-6.73,0.77,7.77,0.0,0.0,0.0,-8.04,-1.15,5.48
1738248581.5403492,104609,0,0,,0.0,-0.39,0.22,0.71,0.54,1.17,-5.1,0.72,-7.29,0.75,7.92,0.0,0.0,0.0,-7.77,-1.03,5.89
1738248581.5587602,104610,0,0,,0.0,-0.34,0.21,0.73,0.55,1.11,-5.18,1.2,-8.4,3.4,7.79,0.0,0.0,0.0,-7.15,-0.74,6.65
1738248581.5740263,104611,0,0,,0.0,-0.3,0.19,0.76,0.55,1.03,-5.12,1.61,-8.87,3.43,7.79,0.0,0.0,0.0,-6.49,-0.36,7.33
1738248581.5911973,104612,0,0,,0.0,-0.28,0.19,0.77,0.54,0.99,-4.71,2.42,-9.9,1.93,9.09,0.0,0.0,0.0,-6.16,-0.14,7.62
1738248581.6099577,104613,0,0,,0.0,-0.23,0.18,0.79,0.53,1.28,-4.31,2.92,-12.78,-0.47,12.54,0.0,0.0,0.0,-5.48,0.35,8.12
1738248581.6248875,104614,0,0,,0.0,-0.19,0.17,0.81,0.52,1.43,-4.25,2.7,-14.81,-2.89,12.57,0.0,0.0,0.0,-4.76,0.86,8.52
1738248581.6411796,104615,0,0,,0.0,-0.16,0.17,0.82,0.52,1.49,-4.15,2.46,-15.99,-3.05,13.14,0.0,0.0,0.0,-4.39,1.09,8.69
1738248581.6588056,104616,0,0,,0.0,-0.12,0.17,0.84,0.51,1.47,-4.21,1.91,-17.55,-3.14,13.2,0.0,0.0,0.0,-3.63,1.51,8.98
1738248581.6747744,104617,0,0,,0.0,-0.08,0.16,0.84,0.51,1.47,-4.24,1.58,-16.4,-7.38,9.9,0.0,0.0,0.0,-2.84,1.87,9.19
1738248581.6909955,104618,0,0,,0.0,-0.06,0.16,0.85,0.51,1.75,-3.99,0.68,-16.78,-6.84,9.38,0.0,0.0,0.0,-2.47,2.04,9.26
1738248581.709985,104619,0,0,,0.0,-0.02,0.15,0.85,0.51,1.59,-3.56,0.01,-15.91,-2.77,2.54,0.0,0.0,0.0,-1.8,2.35,9.34
1738248581.7245677,104620,0,0,,0.0,0.01,0.15,0.84,0.52,0.94,-2.54,0.0,-16.61,-0.52,-1.65,0.0,0.0,0.0,-1.29,2.55,9.37
1738248581.740898,104621,0,0,,0.0,0.02,0.15,0.84,0.52,0.74,-1.91,0.16,-17.37,-2.33,-4.81,0.0,0.0,0.0,-1.11,2.62,9.38
1738248581.75872,104622,0,0,,0.0,0.03,0.14,0.84,0.52,0.21,-0.58,0.37,-19.13,-2.75,-4.93,0.0,0.0,0.0,-0.93,2.7,9.38
1738248581.7747917,104623,0,0,,0.0,0.03,0.14,0.85,0.51,-0.36,0.0,0.38,-17.5,-3.6,-2.89,0.0,0.0,0.0,-0.96,2.59,9.4
1738248581.790372,104624,0,0,,0.0,0.02,0.14,0.85,0.51,-1.14,1.08,0.35,-17.1,-2.91,-1.44,0.0,0.0,0.0,-1.05,2.49,9.42
1738248581.8097622,104625,0,0,,0.0,0.0,0.14,0.85,0.51,-1.13,1.64,0.17,-13.08,-0.02,5.98,0.0,0.0,0.0,-1.34,2.28,9.44
1738248581.8246753,104626,0,0,,0.0,-0.02,0.14,0.85,0.51,-0.78,1.34,-0.17,-0.63,12.0,26.84,0.0,0.0,0.0,-1.8,2.15,9.39
1738248581.8410027,104627,0,0,,0.0,-0.04,0.15,0.84,0.51,-1.19,4.38,-1.14,-17.55,-4.7,2.72,0.0,0.0,0.0,-2.22,2.02,9.33
1738248581.8581593,104628,0,0,,0.0,-0.07,0.16,0.84,0.51,0.27,2.55,0.12,-6.46,4.27,5.91,0.0,0.0,0.0,-2.75,1.98,9.19
1738248581.874766,104629,0,0,,0.0,-0.09,0.17,0.84,0.5,-0.01,2.66,0.32,-5.66,-1.96,18.13,0.0,0.0,0.0,-3.22,1.96,9.05
1738248581.890726,104630,0,0,,0.0,-0.1,0.18,0.84,0.5,-0.19,2.18,0.23,-10.74,-4.33,11.43,0.0,0.0,0.0,-3.4,1.95,8.98
1738248581.909003,104631,0,0,,0.0,-0.11,0.19,0.84,0.5,0.08,1.73,0.32,-14.76,5.89,13.62,0.0,0.0,0.0,-3.69,1.99,8.86
1738248581.9244735,104632,0,0,,0.0,-0.12,0.19,0.84,0.49,-0.05,1.13,0.02,-3.49,3.04,10.06,0.0,0.0,0.0,-3.89,1.95,8.78
1738248581.9412801,104633,0,0,,0.0,-0.13,0.19,0.84,0.49,-0.36,1.07,-0.15,-4.46,1.77,7.92,0.0,0.0,0.0,-3.99,1.92,8.74
1738248581.9583175,104634,0,0,,0.0,-0.14,0.19,0.84,0.49,-0.48,0.75,-0.23,-4.9,2.37,10.05,0.0,0.0,0.0,-4.13,1.83,8.69
1738248581.9745374,104635,0,0,,0.0,-0.15,0.19,0.84,0.49,-0.5,0.68,-0.24,-5.5,-0.01,10.24,0.0,0.0,0.0,-4.25,1.72,8.66
1738248581.9905736,104636,0,0,,0.0,-0.15,0.19,0.84,0.49,-0.34,0.37,-0.18,-3.65,0.3,10.27,0.0,0.0,0.0,-4.28,1.69,8.65
1738248582.008462,104637,0,0,,0.0,-0.15,0.19,0.83,0.49,-0.03,0.32,-0.01,-4.96,1.47,9.98,0.0,0.0,0.0,-4.34,1.67,8.62
1738248582.024896,104638,0,0,,0.0,-0.15,0.19,0.83,0.49,0.1,0.17,0.05,-5.86,1.03,8.67,0.0,0.0,0.0,-4.37,1.69,8.61
1738248582.0408719,104639,0,0,,0.0,-0.15,0.19,0.83,0.49,0.13,0.12,0.08,-5.36,1.42,9.03,0.0,0.0,0.0,-4.38,1.7,8.6
1738248582.0588012,104640,0,0,,0.0,-0.15,0.2,0.83,0.49,0.09,0.04,0.1,-5.03,1.84,8.61,0.0,0.0,0.0,-4.39,1.73,8.59
1738248582.0747633,104641,0,0,,0.0,-0.15,0.2,0.83,0.49,0.06,0.02,0.08,-5.24,1.76,8.24,0.0,0.0,0.0,-4.38,1.74,8.59
1738248582.0910773,104642,0,0,,0.0,-0.15,0.2,0.83,0.49,0.02,-0.04,0.05,-4.78,1.78,8.22,0.0,0.0,0.0,-4.38,1.75,8.59
1738248582.1095827,104643,0,0,,0.0,-0.15,0.2,0.83,0.49,-0.01,-0.03,0.03,-3.84,1.88,8.74,0.0,0.0,0.0,-4.38,1.75,8.59
1738248582.125228,104644,0,0,,0.0,-0.15,0.2,0.84,0.49,-0.02,-0.0,0.01,-3.93,1.99,8.55,0.0,0.0,0.0,-4.38,1.75,8.59
1738248582.1413908,104645,0,0,,0.0,-0.15,0.2,0.83,0.49,-0.02,0.04,-0.01,-4.89,1.65,8.32,0.0,0.0,0.0,-4.38,1.75,8.59
1738248582.1588302,104646,0,0,,0.0,-0.15,0.2,0.83,0.49,0.0,0.03,-0.02,-4.29,1.5,8.6,0.0,0.0,0.0,-4.39,1.74,8.59
1738248582.175316,104647,0,0,,0.0,-0.15,0.2,0.83,0.49,0.01,0.03,-0.03,-4.3,1.93,8.47,0.0,0.0,0.0,-4.39,1.75,8.58
1738248582.1911724,104648,0,0,,0.0,-0.15,0.2,0.83,0.49,0.05,-0.02,-0.01,-4.37,1.68,8.59,0.0,0.0,0.0,-4.39,1.75,8.58
1738248582.2094004,104649,0,0,,0.0,-0.15,0.2,0.83,0.49,0.05,-0.01,-0.01,-3.89,1.99,8.74,0.0,0.0,0.0,-4.39,1.76,8.58
1738248582.2252855,104650,0,0,,0.0,-0.15,0.2,0.83,0.49,0.08,-0.04,-0.0,-4.62,1.79,8.35,0.0,0.0,0.0,-4.39,1.77,8.58
1738248582.2412024,104651,0,0,,0.0,-0.15,0.2,0.83,0.49,0.08,0.0,-0.01,-4.49,2.04,8.5,0.0,0.0,0.0,-4.39,1.78,8.58
1738248582.2590172,104652,0,0,,0.0,-0.15,0.2,0.83,0.49,0.09,-0.01,0.0,-4.9,2.02,8.49,0.0,0.0,0.0,-4.38,1.79,8.58
1738248582.275198,104653,0,0,,0.0,-0.15,0.2,0.83,0.49,0.08,-0.0,-0.01,-4.72,1.78,8.43,0.0,0.0,0.0,-4.38,1.8,8.58
1738248582.291287,104654,0,0,,0.0,-0.15,0.2,0.83,0.49,0.07,0.01,-0.01,-4.77,1.91,8.4,0.0,0.0,0.0,-4.38,1.81,8.58
1738248582.3097022,104655,0,0,,0.0,-0.15,0.2,0.83,0.49,0.07,0.01,-0.02,-4.73,1.67,8.42,0.0,0.0,0.0,-4.39,1.82,8.57
1738248582.3253715,104656,0,0,,0.0,-0.15,0.2,0.83,0.49,0.07,0.03,-0.02,-4.8,1.59,8.27,0.0,0.0,0.0,-4.39,1.83,8.57
1738248582.3417664,104657,0,0,,0.0,-0.15,0.2,0.83,0.49,0.07,0.05,-0.03,-4.14,2.13,8.58,0.0,0.0,0.0,-4.4,1.83,8.56
1738248582.3590355,104658,0,0,,0.0,-0.15,0.2,0.83,0.49,0.07,0.06,-0.03,-4.6,2.01,8.45,0.0,0.0,0.0,-4.42,1.84,8.55
1738248582.3756733,104659,0,0,,0.0,-0.15,0.2,0.83,0.49,0.07,0.14,-0.05,-4.58,1.93,8.37,0.0,0.0,0.0,-4.44,1.85,8.54
1738248582.3912895,104660,0,0,,0.0,-0.15,0.2,0.83,0.49,0.06,0.24,-0.09,-5.16,1.74,8.4,0.0,0.0,0.0,-4.46,1.85,8.52
1738248582.4092813,104661,0,0,,0.0,-0.16,0.21,0.83,0.49,0.05,0.29,-0.11,-4.49,2.01,8.53,0.0,0.0,0.0,-4.52,1.85,8.49
1738248582.4262755,104662,0,0,,0.0,-0.16,0.21,0.83,0.49,0.04,0.47,-0.14,-4.68,1.74,8.5,0.0,0.0,0.0,-4.62,1.84,8.45
1738248582.4415312,104663,0,0,,0.0,-0.16,0.21,0.83,0.49,0.04,0.69,-0.15,-4.03,2.01,8.91,0.0,0.0,0.0,-4.68,1.84,8.41
1738248582.459714,104664,0,0,,0.0,-0.17,0.22,0.83,0.49,0.06,0.81,-0.15,-4.42,1.98,8.31,0.0,0.0,0.0,-4.83,1.83,8.33
1738248582.4754887,104665,0,0,,0.0,-0.18,0.22,0.82,0.49,0.02,1.21,-0.27,-3.16,2.11,7.12,0.0,0.0,0.0,-5.06,1.8,8.2
1738248582.4911797,104666,0,0,,0.0,-0.19,0.22,0.82,0.49,-0.11,1.8,-0.4,-6.59,3.23,10.25,0.0,0.0,0.0,-5.21,1.77,8.11
1738248582.5098686,104667,0,0,,0.0,-0.21,0.23,0.81,0.49,-0.17,2.0,-0.5,-5.98,2.57,11.12,0.0,0.0,0.0,-5.57,1.67,7.88
1738248582.5259962,104668,0,0,,0.0,-0.24,0.24,0.8,0.49,-0.46,2.94,-0.82,-3.79,2.18,8.29,0.0,0.0,0.0,-6.07,1.5,7.55
1738248582.5414739,104669,0,0,,0.0,-0.26,0.25,0.8,0.49,-0.67,3.69,-1.08,-3.8,2.15,8.87,0.0,0.0,0.0,-6.35,1.38,7.33
1738248582.5599437,104670,0,0,,0.0,-0.3,0.26,0.78,0.49,-0.86,4.15,-1.22,-5.29,1.78,8.12,0.0,0.0,0.0,-6.98,1.1,6.79
1738248582.5759203,104671,0,0,,0.0,-0.35,0.27,0.76,0.48,-0.86,5.21,-1.49,-5.32,3.74,8.58,0.0,0.0,0.0,-7.71,0.75,6.0
1738248582.591985,104672,0,0,,0.0,-0.38,0.28,0.74,0.48,-1.03,7.34,-1.87,-11.75,3.74,16.16,0.0,0.0,0.0,-8.13,0.55,5.44
1738248582.6103253,104673,0,0,,0.0,-0.45,0.3,0.71,0.46,-1.49,8.14,-1.86,-13.72,1.45,14.27,0.0,0.0,0.0,-8.91,0.08,4.09
1738248582.6266189,104674,0,0,,0.0,-0.52,0.31,0.66,0.44,-1.69,8.38,-2.32,-17.14,3.11,25.67,0.0,0.0,0.0,-9.45,-0.46,2.57
1738248582.6422198,104675,0,0,,0.0,-0.55,0.32,0.64,0.43,-1.58,7.44,-2.19,-21.15,-2.89,31.34,0.0,0.0,0.0,-9.59,-0.7,1.88
1738248582.660143,104676,0,0,,0.0,-0.57,0.32,0.62,0.44,-0.34,3.68,-1.36,-6.4,10.21,21.73,0.0,0.0,0.0,-9.64,-0.93,1.51
1738248582.6762273,104677,0,0,,0.0,-0.57,0.31,0.62,0.44,-0.1,-0.47,-0.93,0.85,6.86,7.35,0.0,0.0,0.0,-9.61,-1.11,1.56
1738248582.6917372,104678,0,0,,0.0,-0.57,0.31,0.62,0.44,-0.3,-0.34,-0.69,-2.37,5.04,10.75,0.0,0.0,0.0,-9.6,-1.18,1.59
1738248582.7101166,104679,0,0,,0.0,-0.56,0.3,0.63,0.45,0.07,-0.69,-0.24,-2.57,1.81,9.5,0.0,0.0,0.0,-9.57,-1.2,1.75
1738248582.7265902,104680,0,0,,0.0,-0.55,0.3,0.63,0.45,-0.07,-1.42,-0.09,-2.68,-0.32,9.47,0.0,0.0,0.0,-9.5,-1.23,2.05
1738248582.7418146,104681,0,0,,0.0,-0.55,0.29,0.64,0.46,0.5,-2.25,-0.38,-3.11,1.89,9.53,0.0,0.0,0.0,-9.45,-1.26,2.26
1738248582.760526,104682,0,0,,0.0,-0.53,0.28,0.65,0.47,0.57,-2.71,-0.39,-3.02,1.12,7.35,0.0,0.0,0.0,-9.3,-1.29,2.8
1738248582.776359,104683,0,0,,0.0,-0.5,0.27,0.66,0.48,0.68,-3.31,-0.18,-3.26,0.71,7.16,0.0,0.0,0.0,-9.09,-1.27,3.43
1738248582.791881,104684,0,0,,0.0,-0.49,0.26,0.67,0.49,0.82,-3.75,0.09,-5.11,0.15,7.95,0.0,0.0,0.0,-8.96,-1.23,3.77
1738248582.8103642,104685,0,0,,0.0,-0.46,0.25,0.69,0.5,0.84,-4.04,0.17,-5.47,0.34,7.32,0.0,0.0,0.0,-8.64,-1.13,4.49
1738248582.826771,104686,0,0,,0.0,-0.42,0.23,0.71,0.51,0.83,-4.46,0.33,-6.03,-0.32,7.2,0.0,0.0,0.0,-8.21,-0.98,5.25
1738248582.8420596,104687,0,0,,0.0,-0.4,0.23,0.72,0.52,0.96,-4.73,0.46,-6.93,-1.14,7.59,0.0,0.0,0.0,-7.97,-0.9,5.63
1738248582.8608954,104688,0,0,,0.0,-0.36,0.21,0.74,0.53,1.05,-4.83,0.48,-8.12,1.36,7.49,0.0,0.0,0.0,-7.41,-0.7,6.37
1738248582.8772953,104689,0,0,,0.0,-0.32,0.2,0.76,0.54,0.99,-4.9,0.72,-8.2,2.17,7.09,0.0,0.0,0.0,-6.79,-0.46,7.05
1738248582.892206,104690,0,0,,0.0,-0.3,0.19,0.77,0.54,0.83,-4.68,1.37,-9.04,2.68,8.35,0.0,0.0,0.0,-6.47,-0.31,7.36
1738248582.9103453,104691,0,0,,0.0,-0.26,0.18,0.79,0.53,0.81,-4.58,1.73,-10.38,1.26,10.31,0.0,0.0,0.0,-5.81,0.02,7.9
1738248582.927149,104692,0,0,,0.0,-0.22,0.17,0.81,0.53,0.89,-4.35,2.23,-10.85,0.59,10.3,0.0,0.0,0.0,-5.12,0.41,8.34
1738248582.9422288,104693,0,0,,0.0,-0.2,0.16,0.82,0.52,0.96,-4.06,2.41,-13.1,-0.21,11.42,0.0,0.0,0.0,-4.78,0.6,8.53
1738248582.9603338,104694,0,0,,0.0,-0.16,0.15,0.83,0.51,0.88,-3.96,2.38,-14.79,-0.89,12.56,0.0,0.0,0.0,-4.08,0.94,8.86
1738248582.9774942,104695,0,0,,0.0,-0.12,0.14,0.85,0.5,0.64,-3.83,2.23,-15.43,-1.38,12.71,0.0,0.0,0.0,-3.37,1.21,9.12
1738248582.9922554,104696,0,0,,0.0,-0.1,0.14,0.85,0.49,0.72,-3.76,1.6,-16.15,-8.27,12.05,0.0,0.0,0.0,-3.02,1.32,9.23
1738248583.0111978,104697,0,0,,0.0,-0.06,0.13,0.86,0.49,0.92,-3.76,0.99,-16.07,-6.48,8.33,0.0,0.0,0.0,-2.33,1.53,9.4
1738248583.0270295,104698,0,0,,0.0,-0.03,0.12,0.86,0.5,1.1,-3.58,-0.13,-15.64,-4.12,5.58,0.0,0.0,0.0,-1.71,1.72,9.5
1738248583.043001,104699,0,0,,0.0,-0.02,0.12,0.85,0.51,0.92,-2.87,-0.66,-15.62,-1.72,0.21,0.0,0.0,0.0,-1.45,1.79,9.52
1738248583.060563,104700,0,0,,0.0,0.0,0.12,0.85,0.51,0.97,-2.31,-0.72,-17.59,-1.69,-5.21,0.0,0.0,0.0,-1.11,1.96,9.54
1738248583.0775247,104701,0,0,,0.0,0.01,0.12,0.85,0.52,0.85,-0.97,-0.51,-18.62,-1.21,-5.79,0.0,0.0,0.0,-1.01,2.05,9.53
1738248583.0923488,104702,0,0,,0.0,0.01,0.12,0.85,0.52,-0.5,0.31,-0.06,-16.69,-2.13,-4.69,0.0,0.0,0.0,-1.04,2.0,9.54
1738248583.110932,104703,0,0,,0.0,-0.01,0.11,0.85,0.51,-0.99,0.88,0.14,-14.69,-1.13,-0.08,0.0,0.0,0.0,-1.24,1.8,9.55
1738248583.1273878,104704,0,0,,0.0,-0.03,0.11,0.85,0.51,-1.48,1.64,0.36,-14.23,-0.12,2.07,0.0,0.0,0.0,-1.54,1.52,9.56
1738248583.1426542,104705,0,0,,0.0,-0.04,0.11,0.86,0.5,-1.56,1.66,0.77,-3.49,0.09,7.9,0.0,0.0,0.0,-1.69,1.39,9.55
1738248583.1603296,104706,0,0,,0.0,-0.06,0.11,0.86,0.5,-1.0,1.57,0.82,23.95,11.34,39.28,0.0,0.0,0.0,-2.14,1.16,9.49
1738248583.1778624,104707,0,0,,0.0,-0.1,0.11,0.85,0.5,-2.24,4.2,-0.81,-11.34,-16.7,7.09,0.0,0.0,0.0,-2.81,0.88,9.35
1738248583.1924553,104708,0,0,,0.0,-0.11,0.12,0.85,0.5,0.47,2.22,0.35,-10.22,9.24,-4.01,0.0,0.0,0.0,-3.0,0.93,9.28
1738248583.2112975,104709,0,0,,0.0,-0.13,0.13,0.85,0.49,-0.23,2.52,0.47,-12.26,-17.19,17.9,0.0,0.0,0.0,-3.46,0.83,9.13
1738248583.2274768,104710,0,0,,0.0,-0.14,0.14,0.85,0.49,0.03,1.94,0.24,-6.28,-5.92,9.54,0.0,0.0,0.0,-3.75,0.93,9.01
1738248583.2427208,104711,0,0,,0.0,-0.15,0.15,0.85,0.49,0.83,1.18,0.46,-6.62,7.45,6.86,0.0,0.0,0.0,-3.84,1.02,8.96
1738248583.2611668,104712,0,0,,0.0,-0.15,0.15,0.85,0.48,0.49,0.96,0.27,-4.98,-0.54,10.21,0.0,0.0,0.0,-4.01,1.1,8.87
1738248583.277378,104713,0,0,,0.0,-0.16,0.16,0.85,0.48,0.31,0.94,0.14,-5.68,1.59,8.11,0.0,0.0,0.0,-4.15,1.17,8.8
1738248583.2929423,104714,0,0,,0.0,-0.16,0.16,0.85,0.48,0.22,0.73,0.09,-5.75,1.83,9.09,0.0,0.0,0.0,-4.21,1.19,8.77
1738248583.310663,104715,0,0,,0.0,-0.16,0.17,0.85,0.48,0.18,0.69,0.08,-5.22,-0.69,9.11,0.0,0.0,0.0,-4.31,1.23,8.72
1738248583.3277586,104716,0,0,,0.0,-0.17,0.17,0.84,0.48,0.37,0.4,0.15,-6.15,1.61,8.85,0.0,0.0,0.0,-4.36,1.31,8.68
1738248583.342951,104717,0,0,,0.0,-0.17,0.18,0.84,0.48,0.41,0.15,0.22,-4.24,1.03,9.44,0.0,0.0,0.0,-4.37,1.35,8.66
1738248583.3606224,104718,0,0,,0.0,-0.16,0.18,0.84,0.48,0.39,0.16,0.22,-4.79,1.34,9.03,0.0,0.0,0.0,-4.39,1.43,8.64
1738248583.377531,104719,0,0,,0.0,-0.16,0.18,0.85,0.48,0.33,0.05,0.19,-4.57,2.28,8.59,0.0,0.0,0.0,-4.39,1.5,8.63
1738248583.3927298,104720,0,0,,0.0,-0.16,0.18,0.85,0.47,0.27,0.01,0.17,-5.11,1.96,8.41,0.0,0.0,0.0,-4.39,1.53,8.63
1738248583.411377,104721,0,0,,0.0,-0.16,0.19,0.85,0.47,0.22,-0.02,0.14,-4.41,1.98,8.51,0.0,0.0,0.0,-4.38,1.57,8.62
1738248583.4277294,104722,0,0,,0.0,-0.16,0.19,0.85,0.47,0.15,-0.02,0.11,-4.53,1.6,8.23,0.0,0.0,0.0,-4.38,1.61,8.62
1738248583.442586,104723,0,0,,0.0,-0.16,0.19,0.85,0.47,0.11,-0.04,0.09,-4.57,1.69,8.66,0.0,0.0,0.0,-4.37,1.62,8.62
1738248583.461077,104724,0,0,,0.0,-0.16,0.19,0.85,0.47,0.08,-0.01,0.07,-4.81,1.16,8.42,0.0,0.0,0.0,-4.37,1.63,8.62
1738248583.478216,104725,0,0,,0.0,-0.16,0.19,0.85,0.47,0.07,-0.04,0.04,-4.35,1.91,8.7,0.0,0.0,0.0,-4.37,1.65,8.62
1738248583.4927714,104726,0,0,,0.0,-0.16,0.19,0.85,0.47,0.06,-0.03,0.02,-4.71,1.35,8.53,0.0,0.0,0.0,-4.37,1.65,8.62
1738248583.5107067,104727,0,0,,0.0,-0.16,0.19,0.85,0.47,0.08,-0.04,0.02,-5.0,1.72,8.26,0.0,0.0,0.0,-4.36,1.67,8.62
1738248583.5277488,104728,0,0,,0.0,-0.16,0.19,0.85,0.47,0.1,-0.02,0.03,-4.81,1.19,8.48,0.0,0.0,0.0,-4.36,1.69,8.61
1738248583.5429904,104729,0,0,,0.0,-0.16,0.19,0.85,0.47,0.13,-0.04,0.03,-3.61,1.91,8.72,0.0,0.0,0.0,-4.36,1.7,8.61
1738248583.5610008,104730,0,0,,0.0,-0.16,0.19,0.85,0.47,0.12,0.0,0.03,-3.58,2.06,8.83,0.0,0.0,0.0,-4.36,1.72,8.6
1738248583.5783603,104731,0,0,,0.0,-0.16,0.19,0.85,0.47,0.13,-0.03,0.03,-3.94,1.71,8.72,0.0,0.0,0.0,-4.36,1.75,8.6
1738248583.593045,104732,0,0,,0.0,-0.16,0.19,0.85,0.47,0.12,0.03,0.03,-4.57,2.02,8.47,0.0,0.0,0.0,-4.36,1.76,8.6
1738248583.6109452,104733,0,0,,0.0,-0.16,0.19,0.85,0.47,0.11,0.02,0.03,-4.79,1.93,8.55,0.0,0.0,0.0,-4.37,1.78,8.59
1738248583.627716,104734,0,0,,0.0,-0.15,0.2,0.85,0.47,0.09,0.05,0.01,-5.11,1.65,8.24,0.0,0.0,0.0,-4.37,1.8,8.58
1738248583.6433196,104735,0,0,,0.0,-0.15,0.2,0.85,0.47,0.08,0.03,0.0,-5.13,1.58,8.29,0.0,0.0,0.0,-4.38,1.8,8.58
1738248583.6615813,104736,0,0,,0.0,-0.16,0.2,0.84,0.47,0.08,0.07,-0.02,-4.51,1.96,8.46,0.0,0.0,0.0,-4.39,1.81,8.57
1738248583.6781378,104737,0,0,,0.0,-0.16,0.2,0.84,0.47,0.08,0.08,-0.02,-4.42,1.98,8.67,0.0,0.0,0.0,-4.41,1.82,8.56
1738248583.6930578,104738,0,0,,0.0,-0.16,0.2,0.84,0.47,0.07,0.14,-0.05,-4.74,1.87,8.44,0.0,0.0,0.0,-4.42,1.83,8.55
1738248583.7114544,104739,0,0,,0.0,-0.16,0.2,0.84,0.47,0.06,0.16,-0.07,-4.52,2.26,8.51,0.0,0.0,0.0,-4.45,1.83,8.54
1738248583.728018,104740,0,0,,0.0,-0.16,0.2,0.84,0.47,0.03,0.26,-0.15,-4.93,1.94,8.44,0.0,0.0,0.0,-4.51,1.82,8.51
1738248583.7428133,104741,0,0,,0.0,-0.16,0.2,0.84,0.47,0.0,0.45,-0.21,-4.77,1.76,8.55,0.0,0.0,0.0,-4.55,1.81,8.49
1738248583.7613332,104742,0,0,,0.0,-0.17,0.2,0.84,0.48,0.0,0.57,-0.23,-4.21,1.79,8.91,0.0,0.0,0.0,-4.66,1.79,8.43
1738248583.7787192,104743,0,0,,0.0,-0.18,0.21,0.84,0.48,0.02,0.84,-0.23,-4.12,1.52,8.75,0.0,0.0,0.0,-4.82,1.77,8.35
1738248583.7932925,104744,0,0,,0.0,-0.18,0.21,0.83,0.48,0.0,1.23,-0.3,-1.55,1.79,6.18,0.0,0.0,0.0,-4.92,1.76,8.29
1738248583.811377,104745,0,0,,0.0,-0.2,0.22,0.83,0.47,-0.01,1.53,-0.39,-3.8,2.46,11.83,0.0,0.0,0.0,-5.21,1.71,8.12
1738248583.8286052,104746,0,0,,0.0,-0.21,0.23,0.82,0.47,-0.09,1.95,-0.43,-0.92,2.24,6.16,0.0,0.0,0.0,-5.56,1.65,7.9
1738248583.843148,104747,0,0,,0.0,-0.23,0.23,0.82,0.47,-0.27,2.86,-0.74,-8.43,1.99,9.2,0.0,0.0,0.0,-5.78,1.58,7.75
1738248583.8622203,104748,0,0,,0.0,-0.26,0.24,0.81,0.47,-0.36,3.14,-0.87,-3.77,2.66,9.28,0.0,0.0,0.0,-6.3,1.42,7.37
1738248583.8789792,104749,0,0,,0.0,-0.3,0.25,0.79,0.47,-0.61,4.01,-1.03,-5.87,2.52,8.32,0.0,0.0,0.0,-6.9,1.18,6.86
1738248583.8938575,104750,0,0,,0.0,-0.32,0.26,0.78,0.47,-0.81,4.77,-1.35,-5.1,2.1,8.52,0.0,0.0,0.0,-7.22,1.04,6.54
1738248583.9120789,104751,0,0,,0.0,-0.37,0.27,0.76,0.46,-0.85,5.5,-1.55,-5.3,-7.68,10.22,0.0,0.0,0.0,-7.96,0.7,5.67
1738248583.9291582,104752,0,0,,0.0,-0.43,0.3,0.72,0.45,-0.08,7.82,-1.62,-10.16,2.72,14.99,0.0,0.0,0.0,-8.77,0.43,4.35
1738248583.9446115,104753,0,0,,0.0,-0.47,0.31,0.7,0.44,-1.39,8.63,-1.84,-11.49,1.72,11.39,0.0,0.0,0.0,-9.11,0.22,3.61
1738248583.9621356,104754,0,0,,0.0,-0.54,0.33,0.65,0.42,-1.44,8.82,-2.14,-13.47,3.25,20.26,0.0,0.0,0.0,-9.6,-0.23,1.96
1738248583.9796565,104755,0,0,,0.0,-0.58,0.35,0.61,0.4,0.12,8.38,-1.32,-20.6,8.52,31.48,0.0,0.0,0.0,-9.77,-0.38,0.68
1738248583.9951127,104756,0,0,,0.0,-0.59,0.36,0.61,0.4,-0.48,1.79,-0.11,-14.14,10.18,20.77,0.0,0.0,0.0,-9.78,-0.39,0.51
1738248584.0126936,104757,0,0,,0.0,-0.59,0.35,0.61,0.4,-1.11,-0.63,0.02,-2.12,-0.78,5.47,0.0,0.0,0.0,-9.77,-0.38,0.68
1738248584.0298839,104758,0,0,,0.0,-0.58,0.34,0.62,0.4,-0.63,-0.91,-0.01,-2.31,-1.43,7.1,0.0,0.0,0.0,-9.75,-0.42,0.86
1738248584.0453856,104759,0,0,,0.0,-0.58,0.34,0.62,0.4,0.27,-1.27,-0.62,-3.72,1.41,10.02,0.0,0.0,0.0,-9.74,-0.48,0.98
1738248584.0622199,104760,0,0,,0.0,-0.57,0.32,0.63,0.42,0.24,-1.76,-0.86,-3.27,1.0,10.57,0.0,0.0,0.0,-9.68,-0.64,1.37
1738248584.0794215,104761,0,0,,0.0,-0.55,0.31,0.64,0.44,0.39,-2.98,-0.93,-2.76,0.42,9.29,0.0,0.0,0.0,-9.57,-0.79,1.98
1738248584.094737,104762,0,0,,0.0,-0.54,0.3,0.65,0.45,1.02,-3.78,-0.69,-3.14,1.14,6.39,0.0,0.0,0.0,-9.48,-0.83,2.34
1738248584.1122656,104763,0,0,,0.0,-0.51,0.29,0.66,0.47,1.1,-4.02,-0.59,-4.39,1.06,6.75,0.0,0.0,0.0,-9.25,-0.87,3.11
1738248584.1294823,104764,0,0,,0.0,-0.47,0.27,0.68,0.49,1.01,-4.5,-0.42,-4.96,0.98,7.25,0.0,0.0,0.0,-8.93,-0.87,3.94
1738248584.145044,104765,0,0,,0.0,-0.46,0.26,0.69,0.49,0.87,-4.99,-0.16,-5.51,1.42,6.83,0.0,0.0,0.0,-8.73,-0.85,4.37
1738248584.1626089,104766,0,0,,0.0,-0.42,0.24,0.71,0.51,0.86,-5.16,0.05,-6.53,0.79,7.36,0.0,0.0,0.0,-8.25,-0.74,5.24
1738248584.1796608,104767,0,0,,0.0,-0.37,0.23,0.73,0.52,0.9,-5.35,0.49,-7.81,1.04,8.24,0.0,0.0,0.0,-7.66,-0.56,6.09
1738248584.1959562,104768,0,0,,0.0,-0.35,0.22,0.74,0.53,0.72,-5.53,0.85,-8.48,1.25,8.39,0.0,0.0,0.0,-7.33,-0.45,6.49
1738248584.2123973,104769,0,0,,0.0,-0.3,0.2,0.77,0.53,0.69,-5.5,1.11,-9.38,0.33,8.6,0.0,0.0,0.0,-6.61,-0.19,7.24
1738248584.229913,104770,0,0,,0.0,-0.26,0.18,0.79,0.53,0.73,-5.29,1.53,-9.88,-1.12,9.23,0.0,0.0,0.0,-5.85,0.1,7.86
1738248584.245658,104771,0,0,,0.0,-0.23,0.17,0.8,0.53,1.07,-4.97,1.33,-13.36,-3.25,13.91,0.0,0.0,0.0,-5.46,0.25,8.13
1738248584.2628517,104772,0,0,,0.0,-0.19,0.16,0.81,0.53,1.29,-4.95,1.15,-16.24,-1.38,15.69,0.0,0.0,0.0,-4.64,0.58,8.61
1738248584.2805865,104773,0,0,,0.0,-0.14,0.14,0.82,0.54,1.39,-5.29,0.93,-16.51,-0.37,14.85,0.0,0.0,0.0,-3.71,0.88,9.03
1738248584.2965403,104774,0,0,,0.0,-0.11,0.14,0.83,0.54,1.25,-5.35,0.99,-15.5,-0.62,10.67,0.0,0.0,0.0,-3.23,1.02,9.2
1738248584.3130538,104775,0,0,,0.0,-0.06,0.12,0.83,0.53,1.29,-5.13,1.05,-15.53,0.02,10.02,0.0,0.0,0.0,-2.3,1.31,9.44
1738248584.3303766,104776,0,0,,0.0,-0.02,0.11,0.84,0.53,1.33,-4.56,1.12,-14.04,-2.87,7.04,0.0,0.0,0.0,-1.47,1.62,9.55
1738248584.3460927,104777,0,0,,0.0,0.0,0.11,0.84,0.53,1.79,-3.63,1.03,-13.65,-5.29,4.16,0.0,0.0,0.0,-1.11,1.8,9.57
1738248584.3630326,104778,0,0,,0.0,0.03,0.11,0.84,0.53,1.79,-3.05,0.79,-15.56,-5.88,-2.03,0.0,0.0,0.0,-0.58,2.11,9.55
1738248584.3804479,104779,0,0,,0.0,0.05,0.11,0.84,0.53,1.01,-1.8,-0.06,-17.05,-5.3,-4.66,0.0,0.0,0.0,-0.33,2.25,9.53
1738248584.396965,104780,0,0,,0.0,0.05,0.11,0.84,0.53,0.11,-0.19,-0.33,-19.96,-4.8,-7.23,0.0,0.0,0.0,-0.32,2.26,9.53
1738248584.4131234,104781,0,0,,0.0,0.04,0.11,0.84,0.53,-0.37,0.57,-0.24,-17.3,-3.99,-0.36,0.0,0.0,0.0,-0.49,2.14,9.55
1738248584.4300888,104782,0,0,,0.0,0.02,0.11,0.84,0.53,-1.2,1.62,-0.11,-15.96,-3.48,2.87,0.0,0.0,0.0,-0.81,1.92,9.58
1738248584.4461884,104783,0,0,,0.0,0.01,0.11,0.84,0.53,-1.26,1.93,0.16,-10.46,0.91,6.11,0.0,0.0,0.0,-0.98,1.8,9.58
1738248584.4633517,104784,0,0,,0.0,-0.01,0.11,0.84,0.52,-1.31,1.92,0.29,8.31,-0.82,10.94,0.0,0.0,0.0,-1.31,1.59,9.58
1738248584.4806294,104785,0,0,,0.0,-0.05,0.11,0.84,0.53,-0.57,2.25,-0.66,37.11,6.0,29.68,0.0,0.0,0.0,-1.91,1.33,9.52
1738248584.4969573,104786,0,0,,0.0,-0.07,0.12,0.84,0.53,-1.13,3.84,-1.05,-12.5,-3.48,4.79,0.0,0.0,0.0,-2.27,1.2,9.46
1738248584.5138662,104787,0,0,,0.0,-0.08,0.13,0.83,0.53,-0.06,2.69,-0.63,-3.22,0.63,7.89,0.0,0.0,0.0,-2.73,1.23,9.33
1738248584.530622,104788,0,0,,0.0,-0.11,0.14,0.83,0.52,-0.02,2.88,0.53,-6.33,-4.04,20.51,0.0,0.0,0.0,-3.21,1.25,9.17
1738248584.5469985,104789,0,0,,0.0,-0.11,0.15,0.83,0.52,0.02,2.11,0.52,-5.73,-7.46,5.13,0.0,0.0,0.0,-3.39,1.27,9.11
1738248584.5629876,104790,0,0,,0.0,-0.13,0.16,0.83,0.52,0.42,1.88,0.23,-6.71,4.74,6.08,0.0,0.0,0.0,-3.69,1.37,8.97
1738248584.580725,104791,0,0,,0.0,-0.14,0.17,0.83,0.51,0.29,1.19,0.11,-1.26,4.46,8.24,0.0,0.0,0.0,-3.91,1.41,8.88
1738248584.5966067,104792,0,0,,0.0,-0.14,0.17,0.83,0.51,0.09,1.19,0.03,-5.25,0.9,9.5,0.0,0.0,0.0,-4.01,1.42,8.83
1738248584.6134746,104793,0,0,,0.0,-0.15,0.18,0.83,0.51,0.12,1.05,0.03,-6.25,3.35,9.05,0.0,0.0,0.0,-4.18,1.44,8.75
1738248584.6309793,104794,0,0,,0.0,-0.15,0.18,0.83,0.51,0.0,0.77,0.01,-6.14,1.76,9.04,0.0,0.0,0.0,-4.29,1.44,8.69
1738248584.646941,104795,0,0,,0.0,-0.15,0.18,0.83,0.51,0.1,0.51,0.05,-6.66,0.44,8.63,0.0,0.0,0.0,-4.33,1.45,8.67
1738248584.6633162,104796,0,0,,0.0,-0.15,0.19,0.83,0.51,0.21,0.39,0.13,-4.71,1.81,9.64,0.0,0.0,0.0,-4.38,1.51,8.64
1738248584.680853,104797,0,0,,0.0,-0.15,0.19,0.83,0.51,0.29,0.23,0.17,-6.13,0.71,8.73,0.0,0.0,0.0,-4.4,1.57,8.61
1738248584.6970863,104798,0,0,,0.0,-0.15,0.19,0.83,0.5,0.27,0.05,0.15,-3.95,2.43,8.85,0.0,0.0,0.0,-4.4,1.6,8.61
1738248584.7145867,104799,0,0,,0.0,-0.15,0.19,0.83,0.5,0.19,0.09,0.13,-4.43,1.76,8.65,0.0,0.0,0.0,-4.41,1.64,8.6
1738248584.7313056,104800,0,0,,0.0,-0.15,0.2,0.83,0.5,0.07,0.03,0.06,-4.73,2.28,8.45,0.0,0.0,0.0,-4.41,1.65,8.59
1738248584.7476828,104801,0,0,,0.0,-0.15,0.2,0.83,0.5,-0.03,0.01,0.0,-4.47,1.83,8.58,0.0,0.0,0.0,-4.42,1.64,8.59
1738248584.7637703,104802,0,0,,0.0,-0.15,0.19,0.83,0.5,-0.03,-0.03,-0.01,-5.21,1.1,8.31,0.0,0.0,0.0,-4.41,1.64,8.6
1738248584.7809947,104803,0,0,,0.0,-0.15,0.19,0.83,0.5,-0.04,0.0,-0.01,-4.79,1.8,8.33,0.0,0.0,0.0,-4.41,1.63,8.6
1738248584.7978656,104804,0,0,,0.0,-0.15,0.19,0.83,0.5,0.0,-0.04,-0.01,-4.46,1.12,8.55,0.0,0.0,0.0,-4.41,1.63,8.6
1738248584.8136508,104805,0,0,,0.0,-0.15,0.19,0.83,0.5,0.02,-0.04,-0.0,-5.02,1.16,8.29,0.0,0.0,0.0,-4.4,1.64,8.6
1738248584.831087,104806,0,0,,0.0,-0.15,0.19,0.83,0.5,0.07,-0.04,0.02,-4.03,1.62,8.56,0.0,0.0,0.0,-4.39,1.65,8.6
1738248584.8480299,104807,0,0,,0.0,-0.15,0.2,0.83,0.5,0.09,-0.01,0.03,-4.85,1.4,8.61,0.0,0.0,0.0,-4.39,1.66,8.6
1738248584.8641324,104808,0,0,,0.0,-0.15,0.2,0.83,0.5,0.11,-0.03,0.04,-4.83,1.86,8.34,0.0,0.0,0.0,-4.39,1.68,8.6
1738248584.8811078,104809,0,0,,0.0,-0.15,0.2,0.83,0.5,0.11,0.01,0.04,-5.18,1.3,8.39,0.0,0.0,0.0,-4.39,1.69,8.6
1738248584.8969562,104810,0,0,,0.0,-0.15,0.2,0.83,0.5,0.12,-0.02,0.04,-3.99,1.91,8.71,0.0,0.0,0.0,-4.38,1.72,8.59
1738248584.9140122,104811,0,0,,0.0,-0.15,0.2,0.83,0.5,0.11,0.02,0.04,-4.36,1.93,8.48,0.0,0.0,0.0,-4.38,1.74,8.59
1738248584.9313133,104812,0,0,,0.0,-0.15,0.2,0.83,0.5,0.11,-0.0,0.03,-3.89,1.91,8.62,0.0,0.0,0.0,-4.38,1.75,8.59
1738248584.9481564,104813,0,0,,0.0,-0.15,0.2,0.83,0.5,0.09,0.04,0.02,-4.4,1.91,8.62,0.0,0.0,0.0,-4.39,1.77,8.58
1738248584.9640784,104814,0,0,,0.0,-0.15,0.2,0.83,0.5,0.1,0.03,0.02,-4.62,1.66,8.47,0.0,0.0,0.0,-4.39,1.78,8.57
1738248584.9815335,104815,0,0,,0.0,-0.15,0.2,0.83,0.5,0.09,0.06,0.02,-4.7,1.62,8.47,0.0,0.0,0.0,-4.4,1.79,8.57
1738248584.9978547,104816,0,0,,0.0,-0.15,0.2,0.83,0.5,0.09,0.07,0.01,-4.7,1.85,8.6,0.0,0.0,0.0,-4.41,1.81,8.56
1738248585.014197,104817,0,0,,0.0,-0.15,0.2,0.83,0.5,0.08,0.11,-0.01,-3.78,2.03,8.7,0.0,0.0,0.0,-4.43,1.82,8.55
1738248585.0321777,104818,0,0,,0.0,-0.15,0.21,0.83,0.5,0.07,0.14,-0.04,-4.67,1.83,8.43,0.0,0.0,0.0,-4.44,1.83,8.54
1738248585.048166,104819,0,0,,0.0,-0.15,0.21,0.83,0.5,0.05,0.23,-0.1,-4.69,1.73,8.42,0.0,0.0,0.0,-4.48,1.83,8.52
1738248585.063935,104820,0,0,,0.0,-0.15,0.21,0.82,0.5,0.05,0.29,-0.12,-4.08,1.94,8.51,0.0,0.0,0.0,-4.54,1.83,8.49
1738248585.082152,104821,0,0,,0.0,-0.16,0.21,0.82,0.5,0.04,0.45,-0.17,-4.86,1.54,8.54,0.0,0.0,0.0,-4.58,1.82,8.47
1738248585.0986004,104822,0,0,,0.0,-0.16,0.21,0.82,0.5,0.06,0.66,-0.18,-4.7,1.65,8.61,0.0,0.0,0.0,-4.69,1.81,8.41
1738248585.114098,104823,0,0,,0.0,-0.17,0.22,0.82,0.5,0.05,0.81,-0.2,-4.44,2.04,8.74,0.0,0.0,0.0,-4.84,1.8,8.33
1738248585.132089,104824,0,0,,0.0,-0.18,0.22,0.82,0.5,0.06,1.13,-0.27,-4.49,1.62,8.39,0.0,0.0,0.0,-4.93,1.8,8.27
1738248585.1490054,104825,0,0,,0.0,-0.19,0.23,0.81,0.5,-0.05,1.72,-0.45,-7.28,2.55,10.62,0.0,0.0,0.0,-5.19,1.75,8.12
1738248585.1644382,104826,0,0,,0.0,-0.2,0.23,0.81,0.5,-0.12,2.07,-0.51,-2.79,1.65,6.6,0.0,0.0,0.0,-5.51,1.69,7.92
1738248585.182211,104827,0,0,,0.0,-0.23,0.24,0.8,0.5,-0.21,2.53,-0.69,-7.1,2.07,10.54,0.0,0.0,0.0,-5.72,1.63,7.79
1738248585.1995008,104828,0,0,,0.0,-0.24,0.25,0.79,0.5,-0.39,3.23,-0.88,-3.77,1.43,7.95,0.0,0.0,0.0,-6.2,1.48,7.44
1738248585.2145896,104829,0,0,,0.0,-0.28,0.26,0.78,0.5,-0.65,3.96,-1.05,-5.34,2.21,7.47,0.0,0.0,0.0,-6.76,1.28,6.98
1738248585.2318935,104830,0,0,,0.0,-0.32,0.27,0.76,0.49,-0.71,4.28,-1.17,-5.52,1.48,7.19,0.0,0.0,0.0,-7.06,1.15,6.7
1738248585.250229,104831,0,0,,0.0,-0.34,0.28,0.75,0.49,-0.79,5.43,-1.38,-5.62,-0.85,11.55,0.0,0.0,0.0,-7.71,0.87,5.99
1738248585.2656662,104832,0,0,,0.0,-0.4,0.3,0.72,0.48,-0.71,7.52,-1.46,-13.6,4.73,15.52,0.0,0.0,0.0,-8.47,0.56,4.9
1738248585.2824268,104833,0,0,,0.0,-0.46,0.32,0.69,0.46,-1.17,7.91,-1.54,-13.81,2.68,14.09,0.0,0.0,0.0,-8.82,0.38,4.25
1738248585.300459,104834,0,0,,0.0,-0.5,0.33,0.66,0.45,-1.24,8.16,-2.23,-12.77,6.78,18.9,0.0,0.0,0.0,-9.39,-0.07,2.82
1738248585.3155034,104835,0,0,,0.0,-0.55,0.35,0.62,0.44,-0.51,6.23,-1.76,-16.47,1.94,26.61,0.0,0.0,0.0,-9.68,-0.47,1.49
1738248585.3327148,104836,0,0,,0.0,-0.57,0.35,0.61,0.44,-0.26,3.3,-1.26,-13.62,7.77,19.75,0.0,0.0,0.0,-9.71,-0.72,1.12
1738248585.3502574,104837,0,0,,0.0,-0.57,0.34,0.61,0.44,-0.29,-0.56,-1.16,0.49,6.91,10.13,0.0,0.0,0.0,-9.69,-0.83,1.17
1738248585.3650906,104838,0,0,,0.0,-0.57,0.33,0.61,0.44,-0.47,-0.52,-1.02,-3.3,2.93,9.5,0.0,0.0,0.0,-9.67,-1.04,1.24
1738248585.3829226,104839,0,0,,0.0,-0.57,0.32,0.61,0.45,-0.03,-0.9,-0.81,-3.1,3.53,9.2,0.0,0.0,0.0,-9.65,-1.12,1.33
1738248585.4002264,104840,0,0,,0.0,-0.56,0.32,0.61,0.46,0.1,-1.54,-0.81,-3.22,3.72,9.69,0.0,0.0,0.0,-9.59,-1.26,1.59
1738248585.4154522,104841,0,0,,0.0,-0.55,0.3,0.62,0.47,0.3,-2.5,-0.61,-2.97,3.25,8.51,0.0,0.0,0.0,-9.49,-1.38,2.01
1738248585.4333081,104842,0,0,,0.0,-0.53,0.29,0.63,0.48,0.47,-2.97,-0.43,-2.16,2.68,6.93,0.0,0.0,0.0,-9.34,-1.43,2.59
1738248585.4506977,104843,0,0,,0.0,-0.52,0.29,0.64,0.49,0.72,-3.42,-0.23,-3.78,2.04,7.02,0.0,0.0,0.0,-9.25,-1.43,2.91
1738248585.4658296,104844,0,0,,0.0,-0.49,0.27,0.65,0.51,0.84,-3.92,0.05,-4.72,2.46,7.56,0.0,0.0,0.0,-9.01,-1.38,3.6
1738248585.483498,104845,0,0,,0.0,-0.46,0.26,0.67,0.52,0.79,-4.21,0.26,-4.8,2.17,7.38,0.0,0.0,0.0,-8.69,-1.26,4.36
1738248585.5011399,104846,0,0,,0.0,-0.44,0.25,0.69,0.52,0.79,-4.57,0.71,-5.98,1.05,7.86,0.0,0.0,0.0,-8.49,-1.16,4.75
1738248585.5169933,104847,0,0,,0.0,-0.4,0.23,0.71,0.53,0.73,-4.86,1.04,-7.35,0.59,8.1,0.0,0.0,0.0,-8.04,-0.93,5.53
1738248585.534165,104848,0,0,,0.0,-0.36,0.22,0.73,0.53,0.66,-4.97,1.18,-7.5,1.01,7.94,0.0,0.0,0.0,-7.49,-0.67,6.29
1738248585.5521674,104849,0,0,,0.0,-0.34,0.21,0.74,0.53,0.57,-4.96,1.64,-8.18,1.55,7.96,0.0,0.0,0.0,-7.18,-0.52,6.64
1738248585.567664,104850,0,0,,0.0,-0.3,0.2,0.77,0.53,0.55,-4.69,2.17,-9.5,0.29,8.24,0.0,0.0,0.0,-6.55,-0.17,7.28
1738248585.584714,104851,0,0,,0.0,-0.26,0.18,0.79,0.52,0.54,-4.46,2.3,-10.45,-0.05,9.44,0.0,0.0,0.0,-5.92,0.19,7.81
1738248585.601892,104852,0,0,,0.0,-0.24,0.18,0.8,0.52,0.69,-4.17,2.47,-13.85,-1.0,11.87,0.0,0.0,0.0,-5.59,0.38,8.04
1738248585.6185489,104853,0,0,,0.0,-0.2,0.17,0.82,0.51,0.63,-4.17,2.26,-14.37,-2.25,11.21,0.0,0.0,0.0,-4.9,0.72,8.46
1738248585.6352267,104854,0,0,,0.0,-0.16,0.16,0.84,0.5,0.61,-4.11,2.04,-16.21,-1.23,11.37,0.0,0.0,0.0,-4.18,0.99,8.81
1738248585.6521552,104855,0,0,,0.0,-0.14,0.15,0.84,0.5,0.46,-4.17,1.65,-16.11,-1.8,10.23,0.0,0.0,0.0,-3.8,1.09,8.97
1738248585.668384,104856,0,0,,0.0,-0.1,0.14,0.85,0.49,0.48,-4.09,1.21,-15.09,-4.18,6.92,0.0,0.0,0.0,-3.04,1.26,9.23
1738248585.685021,104857,0,0,,0.0,-0.07,0.12,0.86,0.49,0.57,-3.86,0.88,-15.2,-4.68,5.11,0.0,0.0,0.0,-2.35,1.41,9.41
1738248585.7031026,104858,0,0,,0.0,-0.05,0.12,0.86,0.49,0.66,-3.27,0.14,-14.7,-3.94,3.67,0.0,0.0,0.0,-2.05,1.47,9.47
1738248585.7188222,104859,0,0,,0.0,-0.03,0.11,0.86,0.5,0.54,-2.42,-0.25,-14.51,-1.48,0.38,0.0,0.0,0.0,-1.57,1.57,9.55
1738248585.7358413,104860,0,0,,0.0,-0.01,0.11,0.86,0.5,0.43,-1.9,-0.26,-14.81,-1.8,-1.66,0.0,0.0,0.0,-1.27,1.64,9.58
1738248585.7526393,104861,0,0,,0.0,-0.01,0.1,0.86,0.5,0.19,-0.81,-0.16,-15.49,-2.75,-2.21,0.0,0.0,0.0,-1.2,1.65,9.59
1738248585.768372,104862,0,0,,0.0,-0.01,0.1,0.86,0.5,-0.22,0.19,-0.15,-15.85,-2.91,-1.5,0.0,0.0,0.0,-1.19,1.63,9.59
1738248585.7851593,104863,0,0,,0.0,-0.02,0.1,0.86,0.5,-0.47,0.61,-0.13,-16.39,-1.95,-1.05,0.0,0.0,0.0,-1.34,1.51,9.59
1738248585.8024073,104864,0,0,,0.0,-0.03,0.1,0.86,0.5,-0.9,1.4,0.09,-14.46,-0.91,-0.34,0.0,0.0,0.0,-1.47,1.43,9.58
1738248585.8182628,104865,0,0,,0.0,-0.05,0.1,0.86,0.5,-1.23,1.4,0.13,9.41,-2.61,9.34,0.0,0.0,0.0,-1.76,1.21,9.56
1738248585.8352995,104866,0,0,,0.0,-0.08,0.11,0.85,0.5,-0.68,2.4,-0.66,-9.46,4.39,28.41,0.0,0.0,0.0,-2.39,0.99,9.45
1738248585.8528357,104867,0,0,,0.0,-0.1,0.11,0.85,0.5,-0.59,3.58,-0.63,-11.53,-4.81,7.09,0.0,0.0,0.0,-2.72,0.92,9.37
1738248585.8679895,104868,0,0,,0.0,-0.11,0.13,0.85,0.5,0.66,2.21,0.44,-0.97,-2.13,17.38,0.0,0.0,0.0,-3.16,1.02,9.22
1738248585.88488,104869,0,0,,0.0,-0.13,0.14,0.85,0.5,0.19,2.17,0.14,-8.03,-6.66,16.04,0.0,0.0,0.0,-3.52,1.07,9.08
1738248585.9020443,104870,0,0,,0.0,-0.13,0.15,0.85,0.49,1.08,1.34,0.33,-2.42,2.85,8.94,0.0,0.0,0.0,-3.63,1.18,9.02
1738248585.918238,104871,0,0,,0.0,-0.14,0.16,0.85,0.49,0.66,1.05,0.29,-3.33,6.15,6.07,0.0,0.0,0.0,-3.83,1.34,8.92
1738248585.9354646,104872,0,0,,0.0,-0.15,0.17,0.84,0.49,0.17,0.93,0.06,-4.21,2.76,10.73,0.0,0.0,0.0,-4.0,1.36,8.84
1738248585.9523973,104873,0,0,,0.0,-0.15,0.17,0.84,0.49,0.03,0.95,-0.06,-4.51,1.1,9.73,0.0,0.0,0.0,-4.08,1.36,8.81
1738248585.9673884,104874,0,0,,0.0,-0.16,0.17,0.84,0.49,0.05,0.83,-0.02,-5.95,1.84,9.33,0.0,0.0,0.0,-4.22,1.37,8.74
1738248585.9845595,104875,0,0,,0.0,-0.16,0.18,0.84,0.49,0.04,0.74,0.0,-6.33,1.2,9.06,0.0,0.0,0.0,-4.33,1.38,8.68
1738248586.00205,104876,0,0,,0.0,-0.16,0.18,0.84,0.49,0.27,0.42,0.12,-6.22,1.06,8.89,0.0,0.0,0.0,-4.36,1.41,8.66
1738248586.0175295,104877,0,0,,0.0,-0.16,0.18,0.84,0.48,0.38,0.15,0.21,-5.76,1.77,8.58,0.0,0.0,0.0,-4.39,1.49,8.63
1738248586.0344276,104878,0,0,,0.0,-0.16,0.19,0.84,0.48,0.34,0.16,0.19,-5.33,1.62,8.85,0.0,0.0,0.0,-4.41,1.56,8.61
1738248586.0518224,104879,0,0,,0.0,-0.16,0.19,0.84,0.48,0.26,0.04,0.15,-4.83,2.0,8.6,0.0,0.0,0.0,-4.41,1.58,8.61
1738248586.0667305,104880,0,0,,0.0,-0.16,0.19,0.84,0.48,0.18,-0.02,0.1,-4.85,1.72,8.32,0.0,0.0,0.0,-4.4,1.63,8.6
1738248586.0844975,104881,0,0,,0.0,-0.16,0.19,0.84,0.48,0.11,-0.05,0.07,-4.41,1.35,8.9,0.0,0.0,0.0,-4.4,1.64,8.6
1738248586.1018083,104882,0,0,,0.0,-0.16,0.19,0.84,0.48,0.04,-0.05,0.05,-4.8,1.65,8.61,0.0,0.0,0.0,-4.38,1.65,8.61
1738248586.1172638,104883,0,0,,0.0,-0.16,0.19,0.84,0.48,0.02,-0.09,0.04,-3.99,1.66,8.61,0.0,0.0,0.0,-4.37,1.66,8.61
1738248586.1350906,104884,0,0,,0.0,-0.16,0.19,0.84,0.48,-0.0,-0.06,0.03,-4.53,1.82,8.37,0.0,0.0,0.0,-4.36,1.66,8.62
1738248586.15241,104885,0,0,,0.0,-0.16,0.19,0.84,0.48,-0.0,-0.09,0.01,-4.52,1.66,8.4,0.0,0.0,0.0,-4.35,1.66,8.62
1738248586.1666462,104886,0,0,,0.0,-0.15,0.19,0.84,0.48,-0.01,-0.09,-0.01,-4.22,1.69,8.6,0.0,0.0,0.0,-4.34,1.66,8.63
1738248586.18484,104887,0,0,,0.0,-0.15,0.19,0.84,0.48,-0.0,-0.08,-0.01,-3.86,1.7,8.65,0.0,0.0,0.0,-4.33,1.66,8.63
1738248586.2017777,104888,0,0,,0.0,-0.15,0.19,0.84,0.48,0.02,-0.05,-0.01,-5.24,1.15,8.29,0.0,0.0,0.0,-4.32,1.66,8.64
1738248586.2168458,104889,0,0,,0.0,-0.15,0.19,0.84,0.48,0.07,-0.1,0.01,-4.43,1.67,8.51,0.0,0.0,0.0,-4.31,1.67,8.64
1738248586.2348661,104890,0,0,,0.0,-0.15,0.19,0.84,0.48,0.07,-0.03,0.01,-5.3,1.21,8.49,0.0,0.0,0.0,-4.3,1.68,8.64
1738248586.2525573,104891,0,0,,0.0,-0.15,0.19,0.84,0.48,0.1,-0.05,0.03,-3.64,1.66,8.82,0.0,0.0,0.0,-4.3,1.7,8.64
1738248586.267077,104892,0,0,,0.0,-0.15,0.19,0.84,0.48,0.12,0.01,0.04,-4.83,1.69,8.38,0.0,0.0,0.0,-4.3,1.72,8.64
1738248586.2848325,104893,0,0,,0.0,-0.15,0.19,0.84,0.48,0.12,0.01,0.04,-3.57,1.83,8.72,0.0,0.0,0.0,-4.3,1.73,8.64
1738248586.3025177,104894,0,0,,0.0,-0.15,0.19,0.84,0.48,0.13,0.04,0.03,-4.2,2.02,8.73,0.0,0.0,0.0,-4.3,1.75,8.63
1738248586.317263,104895,0,0,,0.0,-0.15,0.19,0.84,0.48,0.12,0.03,0.03,-4.96,1.47,8.24,0.0,0.0,0.0,-4.3,1.78,8.62
1738248586.3351998,104896,0,0,,0.0,-0.15,0.2,0.84,0.48,0.13,0.04,0.02,-4.55,1.88,8.45,0.0,0.0,0.0,-4.31,1.79,8.62
1738248586.352041,104897,0,0,,0.0,-0.15,0.2,0.84,0.48,0.12,0.04,0.01,-4.18,2.04,8.77,0.0,0.0,0.0,-4.31,1.81,8.61
1738248586.3671405,104898,0,0,,0.0,-0.15,0.2,0.84,0.48,0.1,0.09,-0.02,-4.29,2.09,8.72,0.0,0.0,0.0,-4.33,1.83,8.6
1738248586.384828,104899,0,0,,0.0,-0.15,0.2,0.84,0.48,0.1,0.08,-0.02,-3.83,1.76,8.43,0.0,0.0,0.0,-4.33,1.84,8.6
1738248586.4022434,104900,0,0,,0.0,-0.15,0.2,0.84,0.48,0.09,0.16,-0.05,-5.14,1.66,8.33,0.0,0.0,0.0,-4.35,1.85,8.58
1738248586.4172902,104901,0,0,,0.0,-0.15,0.2,0.84,0.48,0.07,0.24,-0.09,-5.22,1.85,8.25,0.0,0.0,0.0,-4.39,1.86,8.56
1738248586.43541,104902,0,0,,0.0,-0.15,0.2,0.84,0.48,0.06,0.31,-0.12,-4.41,1.94,8.26,0.0,0.0,0.0,-4.42,1.86,8.55
1738248586.4531696,104903,0,0,,0.0,-0.16,0.2,0.84,0.48,0.05,0.5,-0.17,-4.51,1.85,8.48,0.0,0.0,0.0,-4.5,1.85,8.51
1738248586.4672427,104904,0,0,,0.0,-0.16,0.21,0.83,0.48,0.05,0.73,-0.21,-4.39,1.77,8.38,0.0,0.0,0.0,-4.62,1.84,8.44
1738248586.4852126,104905,0,0,,0.0,-0.17,0.21,0.83,0.48,0.06,0.84,-0.21,-3.96,1.79,8.93,0.0,0.0,0.0,-4.68,1.84,8.41
1738248586.5027936,104906,0,0,,0.0,-0.17,0.21,0.83,0.48,0.05,1.15,-0.25,-4.17,1.73,8.31,0.0,0.0,0.0,-4.86,1.82,8.31
