Time,header.seq,header.stamp.secs,header.stamp.nsecs,header.frame_id,time_stamp,quat_x,quat_y,quat_z,quat_w,gyro_x,gyro_y,gyro_z,accel_x,accel_y,accel_z,euler_x,euler_y,euler_z,gravity_x,gravity_y,gravity_z
1738248569.2057252,103871,0,0,,0.0,-0.82,0.32,0.45,0.15,0.88,3.43,-0.09,-16.33,4.2,-2.22,0.0,0.0,0.0,-8.14,0.4,-5.43
1738248569.222422,103872,0,0,,0.0,-0.84,0.32,0.42,0.14,0.43,3.49,-0.12,-16.84,2.31,-3.37,0.0,0.0,0.0,-7.76,0.36,-5.97
1738248569.2413669,103873,0,0,,0.0,-0.85,0.32,0.39,0.13,-0.2,3.27,-0.03,-13.31,1.19,-0.32,0.0,0.0,0.0,-7.38,0.38,-6.43
1738248569.2561524,103874,0,0,,0.0,-0.86,0.33,0.38,0.12,0.07,2.79,0.09,-12.22,0.75,-0.25,0.0,0.0,0.0,-7.2,0.38,-6.63
1738248569.2721136,103875,0,0,,0.0,-0.86,0.33,0.36,0.12,0.17,2.42,0.14,-10.57,2.26,1.45,0.0,0.0,0.0,-6.92,0.4,-6.93
1738248569.2911527,103876,0,0,,0.0,-0.87,0.33,0.36,0.11,-0.14,1.45,0.33,-8.88,1.79,0.91,0.0,0.0,0.0,-6.75,0.47,-7.09
1738248569.3056874,103877,0,0,,0.0,-0.87,0.34,0.35,0.11,-0.4,0.54,0.34,-8.35,1.9,0.23,0.0,0.0,0.0,-6.71,0.52,-7.12
1738248569.322059,103878,0,0,,0.0,-0.87,0.34,0.36,0.1,-0.54,0.11,0.37,-7.21,0.95,-0.1,0.0,0.0,0.0,-6.72,0.64,-7.1
1738248569.3411596,103879,0,0,,0.0,-0.86,0.34,0.37,0.1,-0.42,-0.78,0.46,-6.75,-0.27,-1.02,0.0,0.0,0.0,-6.85,0.75,-6.96
1738248569.355898,103880,0,0,,0.0,-0.86,0.34,0.37,0.1,-0.1,-1.72,0.49,-6.53,-0.82,-1.12,0.0,0.0,0.0,-6.96,0.79,-6.85
1738248569.3721895,103881,0,0,,0.0,-0.85,0.34,0.39,0.11,0.15,-2.14,0.44,-6.2,-0.73,-1.78,0.0,0.0,0.0,-7.26,0.81,-6.53
1738248569.3915596,103882,0,0,,0.0,-0.83,0.34,0.42,0.12,0.58,-2.9,0.34,-6.63,-0.74,-2.25,0.0,0.0,0.0,-7.63,0.78,-6.1
1738248569.4061372,103883,0,0,,0.0,-0.82,0.34,0.43,0.13,0.66,-3.55,0.23,-6.84,-0.42,-2.5,0.0,0.0,0.0,-7.84,0.76,-5.84
1738248569.4223092,103884,0,0,,0.0,-0.81,0.34,0.46,0.15,0.54,-3.83,0.19,-7.71,0.35,-3.14,0.0,0.0,0.0,-8.26,0.74,-5.22
1738248569.441154,103885,0,0,,0.0,-0.79,0.33,0.5,0.16,0.0,-4.35,0.09,-8.14,0.4,-3.38,0.0,0.0,0.0,-8.68,0.77,-4.49
1738248569.456171,103886,0,0,,0.0,-0.77,0.33,0.51,0.17,-0.62,-4.79,-0.02,-8.91,0.17,-3.78,0.0,0.0,0.0,-8.88,0.79,-4.08
1738248569.472761,103887,0,0,,0.0,-0.75,0.31,0.55,0.17,-0.92,-4.98,-0.1,-9.94,0.21,-4.09,0.0,0.0,0.0,-9.23,0.84,-3.17
1738248569.491422,103888,0,0,,0.0,-0.72,0.29,0.6,0.18,-1.45,-5.26,-0.27,-11.99,0.39,-4.6,0.0,0.0,0.0,-9.52,0.86,-2.18
1738248569.5065823,103889,0,0,,0.0,-0.71,0.28,0.62,0.18,-1.84,-5.47,-0.42,-12.68,0.47,-4.92,0.0,0.0,0.0,-9.62,0.86,-1.66
1738248569.522239,103890,0,0,,0.0,-0.68,0.26,0.66,0.19,-1.9,-5.54,-0.48,-14.22,1.2,-6.11,0.0,0.0,0.0,-9.75,0.81,-0.58
1738248569.541787,103891,0,0,,0.0,-0.65,0.23,0.7,0.19,-1.82,-5.55,-0.55,-14.86,1.21,-6.39,0.0,0.0,0.0,-9.76,0.7,0.47
1738248569.5565658,103892,0,0,,0.0,-0.63,0.22,0.72,0.2,-1.49,-5.37,-0.58,-15.17,1.1,-7.19,0.0,0.0,0.0,-9.73,0.64,0.99
1738248569.5732136,103893,0,0,,0.0,-0.6,0.2,0.75,0.2,-1.25,-5.24,-0.55,-14.9,0.69,-7.08,0.0,0.0,0.0,-9.59,0.51,1.97
1738248569.591516,103894,0,0,,0.0,-0.57,0.18,0.77,0.21,-0.6,-4.9,-0.45,-14.06,-0.4,-7.01,0.0,0.0,0.0,-9.37,0.41,2.85
1738248569.6061413,103895,0,0,,0.0,-0.55,0.18,0.79,0.22,0.29,-4.4,-0.39,-13.74,-0.49,-7.11,0.0,0.0,0.0,-9.24,0.38,3.25
1738248569.6228304,103896,0,0,,0.0,-0.52,0.18,0.8,0.23,1.08,-3.75,-0.25,-11.28,0.36,-7.45,0.0,0.0,0.0,-8.97,0.39,3.93
1738248569.641904,103897,0,0,,0.0,-0.49,0.18,0.82,0.25,1.28,-3.36,-0.13,-9.76,0.96,-8.02,0.0,0.0,0.0,-8.71,0.49,4.46
1738248569.6567066,103898,0,0,,0.0,-0.48,0.18,0.82,0.25,1.34,-2.36,0.1,-8.97,1.52,-8.18,0.0,0.0,0.0,-8.61,0.56,4.65
1738248569.672756,103899,0,0,,0.0,-0.47,0.19,0.83,0.26,0.77,-1.08,0.18,-7.38,2.64,-10.28,0.0,0.0,0.0,-8.47,0.67,4.87
1738248569.6916418,103900,0,0,,0.0,-0.46,0.19,0.83,0.26,0.27,-0.36,0.18,-8.5,1.67,-9.12,0.0,0.0,0.0,-8.47,0.71,4.88
1738248569.7064373,103901,0,0,,0.0,-0.47,0.19,0.83,0.25,-0.64,0.82,0.16,-8.8,1.82,-8.78,0.0,0.0,0.0,-8.51,0.69,4.82
1738248569.7229502,103902,0,0,,0.0,-0.48,0.18,0.82,0.24,-1.11,1.65,0.22,-9.34,1.35,-8.64,0.0,0.0,0.0,-8.64,0.63,4.59
1738248569.7421596,103903,0,0,,0.0,-0.5,0.18,0.82,0.24,-1.15,1.82,0.21,-23.01,-3.95,21.76,0.0,0.0,0.0,-8.76,0.58,4.35
1738248569.7565694,103904,0,0,,0.0,-0.5,0.18,0.82,0.23,-0.42,0.27,0.18,-16.77,-0.91,6.94,0.0,0.0,0.0,-8.77,0.57,4.33
1738248569.7734127,103905,0,0,,0.0,-0.5,0.18,0.82,0.23,-0.33,0.73,0.54,-7.2,-1.13,-4.46,0.0,0.0,0.0,-8.81,0.63,4.25
1738248569.7918549,103906,0,0,,0.0,-0.51,0.18,0.81,0.22,-0.16,1.21,0.34,-12.59,-0.99,4.4,0.0,0.0,0.0,-8.91,0.67,4.03
1738248569.8066926,103907,0,0,,0.0,-0.52,0.18,0.81,0.22,-0.46,1.29,0.38,-10.37,0.83,0.48,0.0,0.0,0.0,-8.95,0.69,3.92
1738248569.8226833,103908,0,0,,0.0,-0.53,0.18,0.8,0.21,-1.08,1.15,0.41,-9.66,0.49,2.26,0.0,0.0,0.0,-9.04,0.69,3.73
1738248569.8415205,103909,0,0,,0.0,-0.54,0.18,0.8,0.2,-0.95,1.04,0.4,-9.28,1.74,2.9,0.0,0.0,0.0,-9.1,0.71,3.56
1738248569.8562732,103910,0,0,,0.0,-0.54,0.18,0.8,0.19,-0.27,1.03,0.51,-9.41,2.16,2.33,0.0,0.0,0.0,-9.14,0.75,3.47
1738248569.8729806,103911,0,0,,0.0,-0.55,0.18,0.8,0.19,-0.11,1.03,0.55,-8.58,1.9,1.95,0.0,0.0,0.0,-9.19,0.84,3.29
1738248569.8921018,103912,0,0,,0.0,-0.55,0.19,0.79,0.18,0.11,0.88,0.46,-10.13,-0.02,1.1,0.0,0.0,0.0,-9.24,0.93,3.14
1738248569.9063735,103913,0,0,,0.0,-0.55,0.19,0.79,0.18,0.38,0.81,0.43,-10.66,-0.55,1.56,0.0,0.0,0.0,-9.26,0.98,3.06
1738248569.9225419,103914,0,0,,0.0,-0.56,0.2,0.78,0.18,0.54,0.82,0.38,-10.46,0.3,1.79,0.0,0.0,0.0,-9.3,1.08,2.91
1738248569.941733,103915,0,0,,0.0,-0.56,0.21,0.78,0.18,0.43,0.81,0.35,-9.96,2.09,1.41,0.0,0.0,0.0,-9.33,1.16,2.75
1738248569.9565704,103916,0,0,,0.0,-0.57,0.21,0.78,0.18,-0.04,0.82,0.36,-9.89,1.82,1.96,0.0,0.0,0.0,-9.35,1.19,2.68
1738248569.9728734,103917,0,0,,0.0,-0.57,0.21,0.77,0.17,-0.29,0.79,0.33,-9.39,1.66,1.35,0.0,0.0,0.0,-9.38,1.24,2.54
1738248569.991845,103918,0,0,,0.0,-0.58,0.21,0.77,0.17,-0.27,0.81,0.3,-9.54,0.78,2.41,0.0,0.0,0.0,-9.42,1.28,2.4
1738248570.0064135,103919,0,0,,0.0,-0.58,0.21,0.77,0.16,0.08,0.82,0.23,-9.24,0.76,1.92,0.0,0.0,0.0,-9.43,1.31,2.32
1738248570.0230927,103920,0,0,,0.0,-0.59,0.22,0.76,0.16,0.51,0.9,0.16,-9.26,1.26,2.08,0.0,0.0,0.0,-9.46,1.36,2.15
1738248570.0420725,103921,0,0,,0.0,-0.59,0.22,0.76,0.16,0.62,0.93,0.14,-9.4,1.4,1.6,0.0,0.0,0.0,-9.5,1.41,1.96
1738248570.0564318,103922,0,0,,0.0,-0.59,0.23,0.75,0.17,0.64,0.99,0.1,-9.69,1.43,1.99,0.0,0.0,0.0,-9.52,1.43,1.86
1738248570.0729263,103923,0,0,,0.0,-0.6,0.23,0.75,0.17,0.59,0.98,0.08,-9.59,1.53,0.63,0.0,0.0,0.0,-9.55,1.46,1.66
1738248570.0925524,103924,0,0,,0.0,-0.61,0.24,0.74,0.17,0.56,0.99,0.07,-10.04,1.02,0.45,0.0,0.0,0.0,-9.57,1.49,1.46
1738248570.10673,103925,0,0,,0.0,-0.61,0.24,0.74,0.17,0.55,0.91,0.05,-9.82,1.2,-0.17,0.0,0.0,0.0,-9.59,1.5,1.37
1738248570.1232202,103926,0,0,,0.0,-0.61,0.25,0.73,0.17,0.57,0.89,0.05,-10.11,1.25,0.52,0.0,0.0,0.0,-9.61,1.53,1.19
1738248570.142059,103927,0,0,,0.0,-0.62,0.25,0.72,0.17,0.52,0.84,0.04,-9.58,1.48,0.26,0.0,0.0,0.0,-9.62,1.55,1.02
1738248570.1568913,103928,0,0,,0.0,-0.62,0.26,0.72,0.17,0.33,0.86,0.05,-9.63,1.8,0.23,0.0,0.0,0.0,-9.63,1.56,0.93
1738248570.17314,103929,0,0,,0.0,-0.63,0.26,0.72,0.17,0.1,0.89,0.05,-9.65,1.35,0.52,0.0,0.0,0.0,-9.64,1.57,0.77
1738248570.1918454,103930,0,0,,0.0,-0.63,0.26,0.71,0.16,0.1,0.91,0.04,-9.55,1.39,0.46,0.0,0.0,0.0,-9.65,1.58,0.59
1738248570.206264,103931,0,0,,0.0,-0.64,0.26,0.71,0.16,0.16,0.94,0.02,-9.57,1.52,0.03,0.0,0.0,0.0,-9.66,1.58,0.5
1738248570.2231073,103932,0,0,,0.0,-0.64,0.27,0.7,0.16,0.34,1.01,-0.02,-9.76,1.45,-0.1,0.0,0.0,0.0,-9.67,1.58,0.3
1738248570.2421877,103933,0,0,,0.0,-0.65,0.27,0.69,0.16,0.41,1.02,-0.02,-9.77,1.4,-0.23,0.0,0.0,0.0,-9.67,1.58,0.09
1738248570.256442,103934,0,0,,0.0,-0.65,0.27,0.69,0.16,0.54,1.11,-0.05,-9.87,1.42,-0.17,0.0,0.0,0.0,-9.67,1.57,-0.01
1738248570.273494,103935,0,0,,0.0,-0.66,0.28,0.68,0.16,0.57,1.14,-0.07,-9.84,1.76,-0.66,0.0,0.0,0.0,-9.67,1.56,-0.24
1738248570.292892,103936,0,0,,0.0,-0.67,0.28,0.67,0.17,0.56,1.17,-0.07,-10.09,1.77,-0.93,0.0,0.0,0.0,-9.67,1.54,-0.48
1738248570.307021,103937,0,0,,0.0,-0.67,0.28,0.66,0.17,0.45,1.24,-0.08,-10.25,1.56,-1.06,0.0,0.0,0.0,-9.66,1.53,-0.6
1738248570.3238351,103938,0,0,,0.0,-0.68,0.29,0.65,0.16,0.38,1.33,-0.11,-10.6,1.06,-0.93,0.0,0.0,0.0,-9.65,1.51,-0.86
1738248570.3425004,103939,0,0,,0.0,-0.69,0.29,0.64,0.16,0.36,1.36,-0.12,-10.56,0.64,-0.86,0.0,0.0,0.0,-9.62,1.48,-1.13
1738248570.3568363,103940,0,0,,0.0,-0.69,0.29,0.64,0.16,0.36,1.47,-0.16,-10.62,0.59,-0.87,0.0,0.0,0.0,-9.61,1.46,-1.27
1738248570.3738058,103941,0,0,,0.0,-0.7,0.3,0.63,0.16,0.28,1.62,-0.22,-10.64,0.79,-1.41,0.0,0.0,0.0,-9.57,1.41,-1.57
1738248570.3928316,103942,0,0,,0.0,-0.71,0.3,0.61,0.16,0.25,1.7,-0.26,-10.73,1.36,-1.57,0.0,0.0,0.0,-9.52,1.35,-1.9
1738248570.4070408,103943,0,0,,0.0,-0.72,0.3,0.61,0.16,0.24,1.83,-0.3,-10.98,1.12,-1.18,0.0,0.0,0.0,-9.49,1.32,-2.07
1738248570.4241946,103944,0,0,,0.0,-0.73,0.3,0.59,0.16,0.36,1.92,-0.42,-11.86,1.03,-1.58,0.0,0.0,0.0,-9.41,1.23,-2.43
1738248570.4428258,103945,0,0,,0.0,-0.74,0.3,0.58,0.16,0.34,2.06,-0.47,-13.17,0.35,0.5,0.0,0.0,0.0,-9.32,1.13,-2.82
1738248570.457505,103946,0,0,,0.0,-0.75,0.3,0.57,0.16,0.26,2.17,-0.54,-12.51,-0.37,0.74,0.0,0.0,0.0,-9.26,1.07,-3.02
1738248570.4743,103947,0,0,,0.0,-0.76,0.31,0.55,0.16,0.4,2.48,-0.52,-12.36,-1.07,1.14,0.0,0.0,0.0,-9.12,0.96,-3.44
1738248570.4933672,103948,0,0,,0.0,-0.78,0.31,0.53,0.15,0.46,2.59,-0.58,-12.15,-0.03,0.37,0.0,0.0,0.0,-8.95,0.82,-3.91
1738248570.5074596,103949,0,0,,0.0,-0.78,0.31,0.51,0.15,0.7,2.74,-0.44,-12.89,-1.19,0.98,0.0,0.0,0.0,-8.84,0.76,-4.15
1738248570.5247905,103950,0,0,,0.0,-0.8,0.32,0.49,0.15,0.84,2.93,-0.32,-12.41,-0.74,1.43,0.0,0.0,0.0,-8.6,0.63,-4.65
1738248570.5430799,103951,0,0,,0.0,-0.81,0.32,0.46,0.15,0.95,3.02,-0.21,-13.78,4.63,-0.39,0.0,0.0,0.0,-8.31,0.51,-5.17
1738248570.5580118,103952,0,0,,0.0,-0.82,0.33,0.45,0.15,0.73,3.29,-0.11,-15.16,5.02,-0.29,0.0,0.0,0.0,-8.14,0.46,-5.43
1738248570.575368,103953,0,0,,0.0,-0.83,0.33,0.42,0.14,-0.0,3.23,-0.06,-14.73,1.68,-3.26,0.0,0.0,0.0,-7.78,0.43,-5.94
1738248570.5936975,103954,0,0,,0.0,-0.84,0.34,0.4,0.13,0.08,2.88,0.03,-12.95,1.95,-2.84,0.0,0.0,0.0,-7.43,0.43,-6.38
1738248570.608212,103955,0,0,,0.0,-0.85,0.34,0.39,0.13,0.19,2.61,0.05,-11.72,1.15,-0.58,0.0,0.0,0.0,-7.26,0.42,-6.56
1738248570.6256614,103956,0,0,,0.0,-0.86,0.34,0.37,0.12,0.15,1.77,0.25,-10.93,2.28,1.27,0.0,0.0,0.0,-7.0,0.43,-6.84
1738248570.6434789,103957,0,0,,0.0,-0.86,0.35,0.36,0.12,0.18,0.79,0.26,-8.29,1.39,0.36,0.0,0.0,0.0,-6.86,0.44,-6.98
1738248570.658213,103958,0,0,,0.0,-0.86,0.35,0.36,0.12,0.09,0.38,0.24,-7.75,1.07,-0.03,0.0,0.0,0.0,-6.84,0.45,-7.01
1738248570.675755,103959,0,0,,0.0,-0.86,0.35,0.36,0.12,0.12,-0.35,0.3,-7.48,1.01,-0.64,0.0,0.0,0.0,-6.86,0.47,-6.98
1738248570.6935248,103960,0,0,,0.0,-0.85,0.35,0.37,0.12,0.09,-1.12,0.4,-7.39,0.48,-1.04,0.0,0.0,0.0,-6.98,0.51,-6.86
1738248570.7080388,103961,0,0,,0.0,-0.85,0.35,0.37,0.12,0.11,-1.52,0.39,-7.22,-0.01,-0.98,0.0,0.0,0.0,-7.07,0.53,-6.76
1738248570.725771,103962,0,0,,0.0,-0.84,0.35,0.39,0.13,0.19,-2.29,0.31,-6.66,0.02,-1.76,0.0,0.0,0.0,-7.34,0.55,-6.47
1738248570.7435288,103963,0,0,,0.0,-0.83,0.35,0.41,0.14,0.08,-2.97,0.22,-6.94,-0.04,-2.13,0.0,0.0,0.0,-7.68,0.57,-6.06
1738248570.7586248,103964,0,0,,0.0,-0.82,0.35,0.43,0.15,-0.03,-3.29,0.17,-7.17,-0.14,-2.19,0.0,0.0,0.0,-7.87,0.59,-5.81
1738248570.7759235,103965,0,0,,0.0,-0.8,0.35,0.46,0.16,-0.31,-3.84,0.05,-7.76,-0.14,-2.73,0.0,0.0,0.0,-8.26,0.63,-5.23
1738248570.794119,103966,0,0,,0.0,-0.79,0.34,0.49,0.17,-0.55,-4.37,-0.04,-8.4,-0.05,-3.12,0.0,0.0,0.0,-8.66,0.67,-4.53
1738248570.808642,103967,0,0,,0.0,-0.78,0.33,0.51,0.17,-0.67,-4.59,-0.07,-8.66,0.1,-3.38,0.0,0.0,0.0,-8.86,0.69,-4.14
1738248570.8272152,103968,0,0,,0.0,-0.75,0.32,0.55,0.18,-1.02,-4.96,-0.12,-9.97,0.57,-3.54,0.0,0.0,0.0,-9.21,0.74,-3.27
1738248570.8443587,103969,0,0,,0.0,-0.73,0.3,0.59,0.19,-1.5,-5.27,-0.19,-11.2,1.14,-3.8,0.0,0.0,0.0,-9.49,0.78,-2.31
1738248570.858605,103970,0,0,,0.0,-0.71,0.29,0.61,0.19,-1.72,-5.41,-0.23,-12.55,1.08,-3.95,0.0,0.0,0.0,-9.6,0.79,-1.79
1738248570.8769314,103971,0,0,,0.0,-0.68,0.26,0.65,0.19,-1.87,-5.61,-0.34,-13.71,0.91,-5.06,0.0,0.0,0.0,-9.74,0.78,-0.72
1738248570.8955448,103972,0,0,,0.0,-0.65,0.24,0.69,0.2,-1.68,-5.6,-0.45,-14.67,0.37,-5.94,0.0,0.0,0.0,-9.77,0.71,0.36
1738248570.9100206,103973,0,0,,0.0,-0.63,0.23,0.71,0.2,-1.42,-5.52,-0.51,-14.97,0.0,-6.28,0.0,0.0,0.0,-9.74,0.65,0.89
1738248570.9281218,103974,0,0,,0.0,-0.6,0.21,0.74,0.21,-0.64,-5.27,-0.52,-15.27,0.38,-7.55,0.0,0.0,0.0,-9.6,0.53,1.9
1738248570.9463737,103975,0,0,,0.0,-0.56,0.19,0.77,0.22,0.08,-4.86,-0.4,-14.44,0.39,-7.46,0.0,0.0,0.0,-9.38,0.45,2.81
1738248570.960729,103976,0,0,,0.0,-0.53,0.19,0.79,0.24,0.36,-4.59,-0.33,-13.01,0.34,-7.91,0.0,0.0,0.0,-9.24,0.43,3.23
1738248570.9796054,103977,0,0,,0.0,-0.51,0.18,0.8,0.24,0.7,-3.9,-0.19,-11.88,0.71,-8.14,0.0,0.0,0.0,-8.96,0.43,3.94
1738248570.998121,103978,0,0,,0.0,-0.49,0.18,0.82,0.25,0.75,-2.99,-0.0,-9.69,1.11,-8.48,0.0,0.0,0.0,-8.7,0.49,4.49
1738248571.0131724,103979,0,0,,0.0,-0.47,0.18,0.82,0.26,0.67,-2.45,0.07,-8.34,1.68,-8.89,0.0,0.0,0.0,-8.5,0.55,4.84
1738248571.0315526,103980,0,0,,0.0,-0.46,0.18,0.83,0.26,0.23,-1.2,0.15,-7.72,1.93,-9.3,0.0,0.0,0.0,-8.45,0.58,4.94
1738248571.0502007,103981,0,0,,0.0,-0.46,0.18,0.83,0.26,-0.38,0.09,0.16,-8.07,1.9,-9.34,0.0,0.0,0.0,-8.42,0.58,4.97
1738248571.064586,103982,0,0,,0.0,-0.47,0.18,0.83,0.25,-0.83,1.11,0.17,-9.14,1.77,-7.82,0.0,0.0,0.0,-8.51,0.54,4.84
1738248571.0828958,103983,0,0,,0.0,-0.49,0.17,0.82,0.24,-0.96,1.46,0.21,-9.72,0.87,-6.53,0.0,0.0,0.0,-8.65,0.49,4.58
1738248571.101275,103984,0,0,,0.0,-0.49,0.17,0.82,0.24,-0.93,1.61,0.25,-21.41,-1.42,34.21,0.0,0.0,0.0,-8.72,0.47,4.45
1738248571.1160972,103985,0,0,,0.0,-0.49,0.17,0.82,0.23,-0.31,-0.07,0.35,-14.8,-0.87,4.0,0.0,0.0,0.0,-8.73,0.48,4.42
1738248571.1339524,103986,0,0,,0.0,-0.5,0.17,0.82,0.23,-0.28,0.81,0.56,-7.55,-0.93,-2.66,0.0,0.0,0.0,-8.77,0.56,4.34
1738248571.1518612,103987,0,0,,0.0,-0.51,0.18,0.81,0.22,-0.25,1.27,0.37,-11.34,0.36,5.01,0.0,0.0,0.0,-8.82,0.58,4.23
1738248571.1666129,103988,0,0,,0.0,-0.51,0.17,0.81,0.22,-0.88,1.31,0.45,-10.15,0.95,0.06,0.0,0.0,0.0,-8.92,0.6,4.01
1738248571.1854444,103989,0,0,,0.0,-0.53,0.17,0.81,0.2,-1.17,1.18,0.38,-9.18,0.72,2.77,0.0,0.0,0.0,-9.01,0.58,3.81
1738248571.2023382,103990,0,0,,0.0,-0.53,0.17,0.8,0.2,-0.74,1.1,0.43,-8.27,1.84,1.87,0.0,0.0,0.0,-9.08,0.63,3.62
1738248571.217415,103991,0,0,,0.0,-0.54,0.17,0.8,0.19,-0.12,1.17,0.56,-9.19,3.09,2.67,0.0,0.0,0.0,-9.12,0.67,3.52
1738248571.2357025,103992,0,0,,0.0,-0.55,0.18,0.8,0.19,0.03,1.04,0.48,-9.07,1.24,1.71,0.0,0.0,0.0,-9.19,0.76,3.33
1738248571.2527807,103993,0,0,,0.0,-0.55,0.18,0.79,0.18,0.19,0.98,0.42,-10.01,0.03,1.67,0.0,0.0,0.0,-9.24,0.85,3.15
1738248571.268243,103994,0,0,,0.0,-0.56,0.19,0.79,0.18,0.58,0.93,0.38,-10.72,-1.12,1.31,0.0,0.0,0.0,-9.26,0.9,3.06
1738248571.2865586,103995,0,0,,0.0,-0.56,0.2,0.78,0.18,0.61,0.88,0.32,-10.47,0.87,1.29,0.0,0.0,0.0,-9.31,1.0,2.89
1738248571.3029659,103996,0,0,,0.0,-0.57,0.2,0.78,0.18,0.39,0.88,0.31,-10.34,1.54,1.12,0.0,0.0,0.0,-9.35,1.07,2.73
1738248571.3173907,103997,0,0,,0.0,-0.57,0.2,0.78,0.18,-0.11,0.87,0.31,-10.06,1.4,1.77,0.0,0.0,0.0,-9.37,1.1,2.65
1738248571.3360868,103998,0,0,,0.0,-0.58,0.2,0.77,0.17,-0.25,0.83,0.28,-9.39,1.76,0.86,0.0,0.0,0.0,-9.41,1.14,2.5
1738248571.3525012,103999,0,0,,0.0,-0.58,0.21,0.77,0.17,-0.18,0.83,0.24,-9.67,0.85,2.46,0.0,0.0,0.0,-9.44,1.18,2.35
1738248571.3674407,104000,0,0,,0.0,-0.58,0.21,0.77,0.17,0.24,0.85,0.19,-9.05,0.86,1.91,0.0,0.0,0.0,-9.46,1.2,2.27
1738248571.3862379,104001,0,0,,0.0,-0.59,0.21,0.76,0.17,0.63,0.93,0.13,-9.14,1.34,1.99,0.0,0.0,0.0,-9.49,1.25,2.09
1738248571.4024587,104002,0,0,,0.0,-0.6,0.22,0.75,0.17,0.65,0.97,0.11,-9.07,1.47,1.08,0.0,0.0,0.0,-9.53,1.29,1.89
1738248571.417981,104003,0,0,,0.0,-0.6,0.22,0.75,0.17,0.64,1.04,0.08,-9.59,1.26,1.03,0.0,0.0,0.0,-9.55,1.31,1.79
1738248571.4367085,104004,0,0,,0.0,-0.61,0.23,0.74,0.17,0.53,1.09,0.07,-9.53,1.29,0.89,0.0,0.0,0.0,-9.58,1.34,1.57
1738248571.4532492,104005,0,0,,0.0,-0.61,0.24,0.74,0.17,0.51,1.1,0.07,-9.64,1.13,0.91,0.0,0.0,0.0,-9.61,1.37,1.36
1738248571.4682896,104006,0,0,,0.0,-0.62,0.24,0.73,0.17,0.47,1.11,0.07,-9.51,1.18,0.26,0.0,0.0,0.0,-9.62,1.38,1.25
1738248571.48693,104007,0,0,,0.0,-0.62,0.24,0.72,0.17,0.45,1.1,0.07,-9.66,1.4,0.6,0.0,0.0,0.0,-9.64,1.41,1.03
1738248571.5034497,104008,0,0,,0.0,-0.63,0.25,0.72,0.17,0.36,1.1,0.07,-9.45,1.4,0.46,0.0,0.0,0.0,-9.66,1.43,0.81
1738248571.5185876,104009,0,0,,0.0,-0.63,0.25,0.71,0.17,0.2,1.14,0.07,-9.58,1.47,0.36,0.0,0.0,0.0,-9.67,1.43,0.7
1738248571.536327,104010,0,0,,0.0,-0.64,0.25,0.71,0.16,0.08,1.17,0.08,-9.6,1.25,0.02,0.0,0.0,0.0,-9.68,1.45,0.48
1738248571.552784,104011,0,0,,0.0,-0.65,0.26,0.7,0.16,0.1,1.17,0.07,-9.87,1.26,0.18,0.0,0.0,0.0,-9.69,1.46,0.26
1738248571.567574,104012,0,0,,0.0,-0.65,0.26,0.69,0.16,0.17,1.19,0.07,-9.74,1.04,-0.61,0.0,0.0,0.0,-9.69,1.47,0.14
1738248571.5862489,104013,0,0,,0.0,-0.66,0.26,0.69,0.16,0.29,1.21,0.05,-9.7,1.34,-0.65,0.0,0.0,0.0,-9.69,1.48,-0.08
1738248571.6027265,104014,0,0,,0.0,-0.67,0.27,0.68,0.16,0.32,1.21,0.05,-9.6,1.15,-0.84,0.0,0.0,0.0,-9.68,1.49,-0.32
1738248571.6178095,104015,0,0,,0.0,-0.67,0.27,0.67,0.16,0.38,1.26,0.03,-9.85,1.31,-0.76,0.0,0.0,0.0,-9.68,1.49,-0.45
1738248571.6367478,104016,0,0,,0.0,-0.68,0.27,0.66,0.15,0.38,1.34,0.01,-10.22,1.46,-0.77,0.0,0.0,0.0,-9.66,1.49,-0.7
1738248571.653135,104017,0,0,,0.0,-0.69,0.28,0.65,0.15,0.37,1.36,-0.02,-10.44,1.37,-0.63,0.0,0.0,0.0,-9.64,1.48,-0.97
1738248571.667983,104018,0,0,,0.0,-0.69,0.28,0.65,0.15,0.38,1.45,-0.03,-10.75,1.26,-1.08,0.0,0.0,0.0,-9.63,1.47,-1.11
1738248571.6867278,104019,0,0,,0.0,-0.7,0.28,0.64,0.15,0.45,1.53,-0.07,-11.06,1.32,-1.37,0.0,0.0,0.0,-9.59,1.45,-1.41
1738248571.7031834,104020,0,0,,0.0,-0.71,0.29,0.62,0.15,0.47,1.58,-0.08,-11.13,0.82,-1.34,0.0,0.0,0.0,-9.54,1.41,-1.72
1738248571.7181304,104021,0,0,,0.0,-0.72,0.29,0.62,0.15,0.45,1.71,-0.14,-10.83,0.84,-2.21,0.0,0.0,0.0,-9.52,1.39,-1.88
1738248571.7372952,104022,0,0,,0.0,-0.73,0.29,0.6,0.15,0.38,1.87,-0.21,-11.24,0.91,-1.41,0.0,0.0,0.0,-9.45,1.34,-2.23
1738248571.7531562,104023,0,0,,0.0,-0.74,0.3,0.59,0.15,0.37,1.94,-0.23,-11.48,0.88,-1.22,0.0,0.0,0.0,-9.36,1.28,-2.6
1738248571.7687922,104024,0,0,,0.0,-0.74,0.3,0.58,0.15,0.38,2.04,-0.3,-12.17,0.68,-1.82,0.0,0.0,0.0,-9.31,1.25,-2.79
1738248571.787491,104025,0,0,,0.0,-0.76,0.3,0.56,0.15,0.18,2.3,-0.43,-14.19,1.21,-1.08,0.0,0.0,0.0,-9.19,1.16,-3.19
1738248571.8035662,104026,0,0,,0.0,-0.77,0.3,0.54,0.14,0.17,2.32,-0.45,-11.37,-0.23,-1.0,0.0,0.0,0.0,-9.05,1.06,-3.61
1738248571.818235,104027,0,0,,0.0,-0.78,0.3,0.53,0.14,0.4,2.59,-0.38,-11.63,-0.73,-0.21,0.0,0.0,0.0,-8.96,1.02,-3.84
1738248571.8379555,104028,0,0,,0.0,-0.79,0.31,0.51,0.14,0.6,2.77,-0.37,-12.37,-0.46,1.17,0.0,0.0,0.0,-8.75,0.91,-4.32
1738248571.8539727,104029,0,0,,0.0,-0.81,0.31,0.48,0.14,0.69,2.87,-0.26,-12.64,-0.6,1.63,0.0,0.0,0.0,-8.49,0.81,-4.83
1738248571.869026,104030,0,0,,0.0,-0.81,0.32,0.47,0.13,0.6,3.12,-0.07,-13.55,1.88,-0.6,0.0,0.0,0.0,-8.34,0.77,-5.08
1738248571.888537,104031,0,0,,0.0,-0.83,0.32,0.44,0.13,0.34,3.3,0.13,-16.54,3.77,0.27,0.0,0.0,0.0,-8.0,0.75,-5.61
1738248571.9041529,104032,0,0,,0.0,-0.84,0.33,0.42,0.12,0.29,3.14,0.14,-14.18,0.49,-0.14,0.0,0.0,0.0,-7.65,0.73,-6.07
1738248571.9196823,104033,0,0,,0.0,-0.84,0.33,0.41,0.12,0.58,2.73,0.13,-13.14,0.07,-1.45,0.0,0.0,0.0,-7.49,0.71,-6.28
1738248571.939124,104034,0,0,,0.0,-0.85,0.34,0.39,0.12,0.71,2.26,0.05,-11.22,2.27,-2.36,0.0,0.0,0.0,-7.19,0.63,-6.63
1738248571.9544268,104035,0,0,,0.0,-0.86,0.34,0.37,0.11,0.62,1.92,0.11,-10.42,4.19,-0.7,0.0,0.0,0.0,-6.96,0.58,-6.87
1738248571.9697297,104036,0,0,,0.0,-0.86,0.35,0.36,0.11,0.06,1.17,0.38,-10.61,4.26,0.17,0.0,0.0,0.0,-6.88,0.61,-6.95
1738248571.9893348,104037,0,0,,0.0,-0.86,0.35,0.36,0.11,-0.38,0.2,0.37,-8.16,0.68,0.68,0.0,0.0,0.0,-6.81,0.7,-7.01
1738248572.0046263,104038,0,0,,0.0,-0.86,0.35,0.37,0.1,-0.31,-0.23,0.34,-7.61,0.37,-0.74,0.0,0.0,0.0,-6.87,0.77,-6.95
1738248572.0195844,104039,0,0,,0.0,-0.85,0.35,0.37,0.11,0.14,-1.0,0.34,-7.53,-0.22,-1.54,0.0,0.0,0.0,-6.93,0.79,-6.88
1738248572.0398972,104040,0,0,,0.0,-0.85,0.35,0.38,0.11,0.53,-1.72,0.32,-7.21,-0.58,-2.06,0.0,0.0,0.0,-7.13,0.77,-6.68
1738248572.0546896,104041,0,0,,0.0,-0.84,0.36,0.4,0.13,0.68,-2.08,0.28,-6.53,0.11,-1.75,0.0,0.0,0.0,-7.41,0.72,-6.37
1738248572.0694764,104042,0,0,,0.0,-0.83,0.36,0.41,0.13,0.72,-2.78,0.16,-6.51,0.66,-2.14,0.0,0.0,0.0,-7.58,0.68,-6.17
1738248572.0897017,104043,0,0,,0.0,-0.82,0.35,0.43,0.15,0.36,-3.42,0.08,-6.5,1.22,-2.29,0.0,0.0,0.0,-7.95,0.64,-5.69
1738248572.1048796,104044,0,0,,0.0,-0.8,0.35,0.46,0.16,-0.21,-3.96,0.03,-6.69,0.74,-2.71,0.0,0.0,0.0,-8.35,0.66,-5.08
1738248572.1200662,104045,0,0,,0.0,-0.79,0.34,0.48,0.17,-0.45,-4.21,-0.01,-7.56,0.19,-2.92,0.0,0.0,0.0,-8.55,0.68,-4.74
1738248572.1398637,104046,0,0,,0.0,-0.77,0.33,0.52,0.18,-0.76,-4.69,-0.07,-7.82,0.01,-3.47,0.0,0.0,0.0,-8.94,0.73,-3.95
1738248572.1544993,104047,0,0,,0.0,-0.74,0.32,0.56,0.18,-1.16,-5.07,-0.1,-9.26,0.85,-3.7,0.0,0.0,0.0,-9.28,0.78,-3.06
1738248572.1706836,104048,0,0,,0.0,-0.73,0.31,0.58,0.19,-1.4,-5.24,-0.12,-10.02,1.01,-3.57,0.0,0.0,0.0,-9.42,0.81,-2.57
1738248572.1902263,104049,0,0,,0.0,-0.7,0.29,0.62,0.19,-1.64,-5.53,-0.21,-12.51,0.74,-4.53,0.0,0.0,0.0,-9.64,0.84,-1.53
1738248572.2055998,104050,0,0,,0.0,-0.67,0.27,0.66,0.2,-1.37,-5.72,-0.33,-13.88,0.13,-5.75,0.0,0.0,0.0,-9.76,0.81,-0.44
1738248572.2211957,104051,0,0,,0.0,-0.66,0.26,0.68,0.21,-1.08,-5.73,-0.38,-14.78,0.1,-6.87,0.0,0.0,0.0,-9.77,0.78,0.1
1738248572.2410765,104052,0,0,,0.0,-0.62,0.24,0.72,0.22,-0.33,-5.59,-0.42,-15.33,-0.1,-7.35,0.0,0.0,0.0,-9.71,0.69,1.17
1738248572.2558186,104053,0,0,,0.0,-0.58,0.22,0.75,0.23,0.08,-5.28,-0.34,-14.59,0.92,-7.09,0.0,0.0,0.0,-9.54,0.63,2.17
1738248572.2718327,104054,0,0,,0.0,-0.55,0.21,0.77,0.25,0.16,-5.04,-0.28,-14.65,1.21,-7.49,0.0,0.0,0.0,-9.42,0.6,2.63
1738248572.2913392,104055,0,0,,0.0,-0.51,0.2,0.79,0.25,-0.01,-4.46,-0.1,-13.68,1.4,-7.57,0.0,0.0,0.0,-9.15,0.58,3.46
1738248572.3060875,104056,0,0,,0.0,-0.5,0.2,0.8,0.26,-0.21,-3.69,0.04,-12.52,0.87,-7.47,0.0,0.0,0.0,-8.86,0.57,4.14
1738248572.3222568,104057,0,0,,0.0,-0.48,0.19,0.82,0.26,-0.25,-3.26,0.1,-11.67,0.85,-7.45,0.0,0.0,0.0,-8.6,0.57,4.66
1738248572.3421168,104058,0,0,,0.0,-0.46,0.18,0.83,0.26,-0.25,-2.32,0.2,-9.16,0.72,-7.54,0.0,0.0,0.0,-8.49,0.57,4.85
1738248572.357277,104059,0,0,,0.0,-0.46,0.18,0.83,0.26,-0.13,-1.17,0.22,-7.86,0.76,-8.38,0.0,0.0,0.0,-8.35,0.59,5.1
1738248572.373292,104060,0,0,,0.0,-0.45,0.18,0.83,0.26,-0.13,-0.53,0.21,-7.69,1.08,-8.04,0.0,0.0,0.0,-8.33,0.61,5.13
1738248572.3921587,104061,0,0,,0.0,-0.46,0.18,0.83,0.25,-0.41,0.73,0.21,-7.39,1.39,-8.82,0.0,0.0,0.0,-8.36,0.6,5.08
1738248572.4070842,104062,0,0,,0.0,-0.47,0.18,0.83,0.25,-0.72,1.59,0.22,-9.39,0.5,-5.18,0.0,0.0,0.0,-8.49,0.58,4.85
1738248572.4232624,104063,0,0,,0.0,-0.49,0.18,0.82,0.24,-0.81,1.79,0.23,-9.81,0.12,-4.01,0.0,0.0,0.0,-8.66,0.54,4.56
1738248572.4424715,104064,0,0,,0.0,-0.49,0.18,0.82,0.24,-0.39,1.27,0.23,-19.88,-1.54,32.06,0.0,0.0,0.0,-8.71,0.55,4.45
1738248572.4573245,104065,0,0,,0.0,-0.49,0.18,0.82,0.24,-0.14,0.02,0.41,-14.09,-0.61,4.9,0.0,0.0,0.0,-8.72,0.6,4.44
1738248572.4735713,104066,0,0,,0.0,-0.5,0.18,0.82,0.23,-0.24,0.38,0.59,-5.34,-3.0,-8.86,0.0,0.0,0.0,-8.77,0.67,4.32
1738248572.4923,104067,0,0,,0.0,-0.51,0.18,0.81,0.22,0.0,1.26,0.32,-11.59,1.78,2.72,0.0,0.0,0.0,-8.82,0.69,4.22
1738248572.506978,104068,0,0,,0.0,-0.51,0.18,0.81,0.22,-0.79,1.35,0.53,-11.07,2.8,-0.05,0.0,0.0,0.0,-8.92,0.73,4.0
1738248572.523222,104069,0,0,,0.0,-0.52,0.18,0.81,0.21,-1.14,1.26,0.58,-10.93,3.01,1.21,0.0,0.0,0.0,-9.0,0.74,3.79
1738248572.5418406,104070,0,0,,0.0,-0.53,0.18,0.8,0.19,-1.28,1.1,0.56,-9.06,0.15,2.65,0.0,0.0,0.0,-9.04,0.75,3.71
1738248572.557202,104071,0,0,,0.0,-0.54,0.18,0.8,0.19,-0.09,0.97,0.53,-8.62,-0.88,2.6,0.0,0.0,0.0,-9.1,0.81,3.54
1738248572.573188,104072,0,0,,0.0,-0.54,0.19,0.8,0.19,0.39,0.9,0.5,-8.58,0.94,2.89,0.0,0.0,0.0,-9.15,0.93,3.38
1738248572.593086,104073,0,0,,0.0,-0.54,0.2,0.79,0.19,0.73,0.81,0.41,-8.91,1.39,1.39,0.0,0.0,0.0,-9.17,0.99,3.3
1738248572.606833,104074,0,0,,0.0,-0.55,0.2,0.79,0.19,0.66,0.85,0.4,-10.06,0.4,1.73,0.0,0.0,0.0,-9.22,1.1,3.14
1738248572.6235566,104075,0,0,,0.0,-0.55,0.21,0.79,0.18,0.49,0.88,0.37,-10.13,1.02,1.24,0.0,0.0,0.0,-9.26,1.2,2.97
1738248572.6424189,104076,0,0,,0.0,-0.56,0.21,0.78,0.18,0.27,0.89,0.34,-9.85,1.78,1.26,0.0,0.0,0.0,-9.28,1.24,2.89
1738248572.6570125,104077,0,0,,0.0,-0.56,0.21,0.78,0.18,-0.06,0.9,0.32,-9.74,1.61,1.31,0.0,0.0,0.0,-9.32,1.3,2.73
1738248572.6735823,104078,0,0,,0.0,-0.57,0.22,0.77,0.17,-0.12,0.93,0.26,-9.93,1.48,2.22,0.0,0.0,0.0,-9.36,1.34,2.56
1738248572.6924338,104079,0,0,,0.0,-0.57,0.22,0.77,0.17,-0.07,0.93,0.23,-9.25,1.07,1.73,0.0,0.0,0.0,-9.38,1.36,2.48
1738248572.7074018,104080,0,0,,0.0,-0.58,0.22,0.77,0.17,0.25,0.95,0.16,-9.3,1.36,1.77,0.0,0.0,0.0,-9.42,1.4,2.3
1738248572.7232056,104081,0,0,,0.0,-0.58,0.23,0.76,0.17,0.41,0.96,0.13,-9.36,1.28,1.74,0.0,0.0,0.0,-9.46,1.44,2.11
1738248572.7426438,104082,0,0,,0.0,-0.59,0.23,0.75,0.17,0.58,1.02,0.08,-9.5,1.32,1.91,0.0,0.0,0.0,-9.48,1.46,2.01
1738248572.7571464,104083,0,0,,0.0,-0.59,0.24,0.75,0.17,0.63,1.04,0.04,-9.45,1.21,1.2,0.0,0.0,0.0,-9.52,1.49,1.8
1738248572.7735069,104084,0,0,,0.0,-0.6,0.24,0.74,0.17,0.64,1.06,0.03,-9.69,1.15,1.7,0.0,0.0,0.0,-9.55,1.51,1.59
1738248572.7923262,104085,0,0,,0.0,-0.61,0.25,0.74,0.17,0.61,1.06,0.01,-9.56,1.52,1.05,0.0,0.0,0.0,-9.57,1.52,1.48
1738248572.808775,104086,0,0,,0.0,-0.61,0.25,0.73,0.17,0.5,1.06,-0.0,-9.69,1.44,0.46,0.0,0.0,0.0,-9.6,1.54,1.27
1738248572.8281145,104087,0,0,,0.0,-0.62,0.26,0.72,0.17,0.44,1.04,0.01,-9.85,1.13,0.66,0.0,0.0,0.0,-9.62,1.55,1.06
1738248572.8446717,104088,0,0,,0.0,-0.62,0.26,0.72,0.17,0.44,1.04,0.01,-9.48,1.41,0.17,0.0,0.0,0.0,-9.64,1.56,0.86
1738248572.8595014,104089,0,0,,0.0,-0.63,0.26,0.71,0.17,0.28,1.01,0.03,-9.49,1.64,0.05,0.0,0.0,0.0,-9.65,1.56,0.76
1738248572.8779454,104090,0,0,,0.0,-0.63,0.27,0.71,0.17,0.12,1.03,0.05,-9.74,1.38,0.04,0.0,0.0,0.0,-9.66,1.57,0.56
1738248572.894277,104091,0,0,,0.0,-0.64,0.27,0.7,0.17,0.07,1.03,0.05,-10.03,1.28,0.22,0.0,0.0,0.0,-9.67,1.58,0.36
1738248572.9094303,104092,0,0,,0.0,-0.64,0.27,0.7,0.17,0.09,1.05,0.03,-9.73,1.35,-0.36,0.0,0.0,0.0,-9.67,1.58,0.27
1738248572.9263258,104093,0,0,,0.0,-0.65,0.27,0.69,0.16,0.16,1.07,0.03,-9.69,1.17,-0.12,0.0,0.0,0.0,-9.67,1.59,0.06
1738248572.9438643,104094,0,0,,0.0,-0.66,0.28,0.68,0.16,0.23,1.11,0.02,-9.8,1.23,-0.05,0.0,0.0,0.0,-9.67,1.59,-0.14
1738248572.9580657,104095,0,0,,0.0,-0.66,0.28,0.68,0.16,0.31,1.13,0.0,-9.81,1.37,0.05,0.0,0.0,0.0,-9.67,1.59,-0.25
1738248572.974281,104096,0,0,,0.0,-0.67,0.28,0.67,0.16,0.35,1.2,-0.02,-9.57,1.53,-1.12,0.0,0.0,0.0,-9.66,1.58,-0.49
1738248572.99261,104097,0,0,,0.0,-0.68,0.29,0.66,0.16,0.34,1.25,-0.04,-10.16,1.38,-0.72,0.0,0.0,0.0,-9.65,1.58,-0.61
1738248573.0080788,104098,0,0,,0.0,-0.68,0.29,0.66,0.16,0.4,1.34,-0.09,-10.21,1.53,-1.15,0.0,0.0,0.0,-9.64,1.56,-0.87
1738248573.023383,104099,0,0,,0.0,-0.69,0.29,0.64,0.16,0.43,1.36,-0.1,-10.3,1.48,-1.26,0.0,0.0,0.0,-9.61,1.53,-1.14
1738248573.0424,104100,0,0,,0.0,-0.7,0.3,0.63,0.16,0.48,1.43,-0.14,-10.37,1.23,-1.92,0.0,0.0,0.0,-9.6,1.51,-1.28
1738248573.0573325,104101,0,0,,0.0,-0.7,0.3,0.63,0.16,0.5,1.52,-0.17,-10.7,0.74,-1.58,0.0,0.0,0.0,-9.56,1.47,-1.57
1738248573.072943,104102,0,0,,0.0,-0.71,0.3,0.62,0.16,0.48,1.55,-0.22,-10.53,0.98,-2.24,0.0,0.0,0.0,-9.54,1.44,-1.72
1738248573.0925572,104103,0,0,,0.0,-0.72,0.3,0.6,0.16,0.39,1.67,-0.28,-11.22,0.72,-1.83,0.0,0.0,0.0,-9.49,1.38,-2.03
1738248573.106804,104104,0,0,,0.0,-0.73,0.31,0.59,0.16,0.41,1.77,-0.38,-12.1,0.84,-1.94,0.0,0.0,0.0,-9.42,1.3,-2.37
1738248573.1226785,104105,0,0,,0.0,-0.74,0.31,0.58,0.16,0.44,1.78,-0.45,-12.32,2.75,-3.13,0.0,0.0,0.0,-9.38,1.24,-2.53
1738248573.142525,104106,0,0,,0.0,-0.75,0.31,0.56,0.16,0.09,2.07,-0.55,-12.86,-0.16,-0.47,0.0,0.0,0.0,-9.29,1.14,-2.9
1738248573.1571722,104107,0,0,,0.0,-0.76,0.31,0.55,0.16,0.13,2.25,-0.56,-11.48,-0.55,-1.02,0.0,0.0,0.0,-9.17,1.03,-3.3
1738248573.1728163,104108,0,0,,0.0,-0.77,0.31,0.53,0.15,0.19,2.49,-0.61,-13.09,-1.63,2.03,0.0,0.0,0.0,-9.1,0.97,-3.52
1738248573.1929991,104109,0,0,,0.0,-0.79,0.31,0.51,0.15,0.45,2.64,-0.61,-11.8,-0.02,0.41,0.0,0.0,0.0,-8.92,0.83,-3.98
1738248573.2079227,104110,0,0,,0.0,-0.79,0.31,0.5,0.15,0.53,2.98,-0.53,-12.34,-0.66,1.87,0.0,0.0,0.0,-8.69,0.69,-4.48
1738248573.2227855,104111,0,0,,0.0,-0.81,0.31,0.47,0.15,0.56,3.11,-0.48,-12.59,-0.48,2.36,0.0,0.0,0.0,-8.55,0.63,-4.74
1738248573.2431116,104112,0,0,,0.0,-0.82,0.32,0.44,0.14,0.66,3.21,-0.41,-14.13,5.56,-0.52,0.0,0.0,0.0,-8.24,0.5,-5.27
1738248573.2577016,104113,0,0,,0.0,-0.83,0.32,0.43,0.14,0.27,3.25,-0.14,-15.9,3.5,-3.32,0.0,0.0,0.0,-7.9,0.42,-5.78
1738248573.272792,104114,0,0,,0.0,-0.84,0.32,0.41,0.13,-0.18,3.25,-0.02,-15.02,1.12,-3.66,0.0,0.0,0.0,-7.72,0.43,-6.03
1738248573.293266,104115,0,0,,0.0,-0.86,0.33,0.38,0.12,-0.18,2.94,0.06,-12.54,2.13,-2.84,0.0,0.0,0.0,-7.35,0.47,-6.47
1738248573.3073668,104116,0,0,,0.0,-0.86,0.33,0.37,0.11,-0.06,2.42,0.19,-11.38,2.68,0.16,0.0,0.0,0.0,-7.02,0.49,-6.82
1738248573.323088,104117,0,0,,0.0,-0.86,0.33,0.36,0.1,-0.21,2.03,0.35,-11.08,1.95,1.15,0.0,0.0,0.0,-6.77,0.58,-7.06
1738248573.3431182,104118,0,0,,0.0,-0.87,0.34,0.35,0.1,-0.36,1.04,0.4,-8.33,1.12,-0.48,0.0,0.0,0.0,-6.7,0.63,-7.12
1738248573.3575563,104119,0,0,,0.0,-0.87,0.34,0.35,0.1,-0.17,0.36,0.44,-8.04,1.2,-1.57,0.0,0.0,0.0,-6.62,0.72,-7.19
1738248573.3729432,104120,0,0,,0.0,-0.86,0.34,0.36,0.09,-0.16,-0.01,0.48,-7.67,0.55,-1.71,0.0,0.0,0.0,-6.62,0.76,-7.19
1738248573.3932083,104121,0,0,,0.0,-0.86,0.35,0.36,0.1,0.02,-0.87,0.57,-6.34,-0.42,-2.19,0.0,0.0,0.0,-6.7,0.83,-7.1
1738248573.4078014,104122,0,0,,0.0,-0.86,0.35,0.37,0.1,0.36,-1.64,0.5,-5.44,0.39,-2.18,0.0,0.0,0.0,-6.89,0.87,-6.91
1738248573.42339,104123,0,0,,0.0,-0.85,0.35,0.39,0.11,0.47,-1.99,0.45,-5.28,0.37,-2.29,0.0,0.0,0.0,-7.02,0.87,-6.78
1738248573.4433486,104124,0,0,,0.0,-0.83,0.35,0.41,0.12,0.43,-2.67,0.37,-5.52,0.0,-2.58,0.0,0.0,0.0,-7.33,0.86,-6.44
1738248573.4579458,104125,0,0,,0.0,-0.83,0.35,0.42,0.13,0.34,-3.25,0.26,-6.26,-0.43,-2.36,0.0,0.0,0.0,-7.7,0.86,-6.0
1738248573.473157,104126,0,0,,0.0,-0.81,0.35,0.45,0.14,0.25,-3.53,0.21,-6.55,-0.46,-2.47,0.0,0.0,0.0,-7.9,0.86,-5.73
1738248573.4930255,104127,0,0,,0.0,-0.79,0.34,0.48,0.15,-0.01,-4.05,0.11,-7.75,-0.42,-2.88,0.0,0.0,0.0,-8.31,0.88,-5.12
1738248573.5081,104128,0,0,,0.0,-0.78,0.34,0.5,0.16,-0.35,-4.51,0.04,-8.35,0.0,-3.07,0.0,0.0,0.0,-8.72,0.91,-4.39
1738248573.5235815,104129,0,0,,0.0,-0.76,0.33,0.54,0.17,-0.6,-4.69,-0.0,-9.32,0.27,-3.34,0.0,0.0,0.0,-8.91,0.93,-3.98
1738248573.543805,104130,0,0,,0.0,-0.73,0.31,0.58,0.18,-1.18,-5.03,-0.11,-10.45,0.43,-3.27,0.0,0.0,0.0,-9.25,0.99,-3.09
1738248573.5578113,104131,0,0,,0.0,-0.72,0.3,0.6,0.18,-1.67,-5.37,-0.26,-12.24,0.21,-3.47,0.0,0.0,0.0,-9.52,1.03,-2.1
1738248573.573895,104132,0,0,,0.0,-0.69,0.28,0.64,0.19,-1.8,-5.52,-0.35,-12.77,-0.1,-3.71,0.0,0.0,0.0,-9.7,1.01,-1.02
1738248573.5935662,104133,0,0,,0.0,-0.66,0.25,0.68,0.19,-1.74,-5.76,-0.55,-14.79,-0.27,-4.81,0.0,0.0,0.0,-9.74,0.97,-0.46
1738248573.6080923,104134,0,0,,0.0,-0.64,0.24,0.7,0.2,-1.38,-5.8,-0.69,-15.94,0.03,-5.5,0.0,0.0,0.0,-9.74,0.84,0.65
1738248573.6239197,104135,0,0,,0.0,-0.6,0.22,0.74,0.21,-1.15,-5.72,-0.71,-16.19,1.23,-6.3,0.0,0.0,0.0,-9.62,0.69,1.73
1738248573.6439679,104136,0,0,,0.0,-0.57,0.2,0.77,0.22,-0.83,-5.4,-0.63,-16.07,1.67,-6.85,0.0,0.0,0.0,-9.4,0.54,2.71
1738248573.6584551,104137,0,0,,0.0,-0.55,0.19,0.78,0.22,-0.55,-4.91,-0.48,-14.41,1.06,-7.21,0.0,0.0,0.0,-9.26,0.49,3.16
1738248573.6741838,104138,0,0,,0.0,-0.52,0.18,0.8,0.23,-0.27,-4.58,-0.41,-13.5,0.72,-7.45,0.0,0.0,0.0,-8.97,0.42,3.93
1738248573.6938863,104139,0,0,,0.0,-0.49,0.17,0.82,0.24,0.54,-3.76,-0.18,-9.77,1.21,-8.97,0.0,0.0,0.0,-8.68,0.46,4.53
1738248573.708124,104140,0,0,,0.0,-0.48,0.18,0.82,0.25,1.17,-2.64,0.11,-7.95,1.21,-9.8,0.0,0.0,0.0,-8.56,0.52,4.74
1738248573.7241316,104141,0,0,,0.0,-0.46,0.18,0.83,0.26,1.31,-1.95,0.16,-7.57,1.59,-10.6,0.0,0.0,0.0,-8.41,0.67,4.98
1738248573.7434428,104142,0,0,,0.0,-0.46,0.19,0.83,0.26,0.89,-0.37,0.18,-7.75,2.68,-10.82,0.0,0.0,0.0,-8.41,0.76,4.97
1738248573.7588875,104143,0,0,,0.0,-0.46,0.19,0.83,0.26,-0.12,0.98,0.15,-9.28,2.24,-9.05,0.0,0.0,0.0,-8.45,0.77,4.89
1738248573.7745006,104144,0,0,,0.0,-0.48,0.19,0.82,0.25,-0.58,1.45,0.16,-9.66,1.93,-8.67,0.0,0.0,0.0,-8.6,0.73,4.64
1738248573.7938695,104145,0,0,,0.0,-0.49,0.19,0.82,0.24,-1.15,1.99,0.24,-14.62,1.91,11.95,0.0,0.0,0.0,-8.75,0.68,4.37
1738248573.8083572,104146,0,0,,0.0,-0.49,0.19,0.82,0.24,-0.44,0.2,0.23,-13.27,-1.88,3.4,0.0,0.0,0.0,-8.75,0.68,4.35
1738248573.8237007,104147,0,0,,0.0,-0.49,0.19,0.82,0.23,-0.58,-0.02,0.55,-6.87,-3.39,-8.05,0.0,0.0,0.0,-8.76,0.75,4.33
1738248573.8437936,104148,0,0,,0.0,-0.5,0.19,0.81,0.22,-0.27,0.99,0.5,-12.49,-0.21,4.95,0.0,0.0,0.0,-8.84,0.81,4.15
1738248573.8586538,104149,0,0,,0.0,-0.51,0.19,0.81,0.22,-0.36,1.18,0.43,-11.89,-0.42,-0.39,0.0,0.0,0.0,-8.89,0.83,4.05
1738248573.8734486,104150,0,0,,0.0,-0.52,0.19,0.81,0.21,-0.78,1.19,0.47,-9.89,1.37,2.46,0.0,0.0,0.0,-8.97,0.84,3.86
1738248573.8934066,104151,0,0,,0.0,-0.53,0.19,0.81,0.2,-0.71,1.02,0.38,-9.31,2.93,2.32,0.0,0.0,0.0,-9.03,0.87,3.7
1738248573.9082408,104152,0,0,,0.0,-0.53,0.19,0.8,0.2,-0.11,1.02,0.53,-7.68,2.69,2.08,0.0,0.0,0.0,-9.07,0.91,3.61
1738248573.9233134,104153,0,0,,0.0,-0.54,0.2,0.8,0.19,0.18,1.05,0.54,-7.87,2.61,2.18,0.0,0.0,0.0,-9.1,0.97,3.51
1738248573.9435713,104154,0,0,,0.0,-0.54,0.2,0.79,0.19,0.62,0.89,0.39,-9.79,0.57,1.49,0.0,0.0,0.0,-9.15,1.08,3.34
1738248573.9581115,104155,0,0,,0.0,-0.54,0.21,0.79,0.19,0.83,0.92,0.36,-10.17,-0.39,1.99,0.0,0.0,0.0,-9.2,1.19,3.16
1738248573.9734998,104156,0,0,,0.0,-0.55,0.22,0.78,0.19,0.94,0.94,0.32,-10.31,0.68,0.9,0.0,0.0,0.0,-9.22,1.25,3.06
1738248573.9935913,104157,0,0,,0.0,-0.55,0.23,0.78,0.19,0.64,1.0,0.25,-10.58,1.62,1.93,0.0,0.0,0.0,-9.3,1.37,2.77
1738248574.0084112,104158,0,0,,0.0,-0.56,0.23,0.78,0.19,0.12,1.01,0.25,-9.83,1.88,1.03,0.0,0.0,0.0,-9.32,1.4,2.68
1738248574.0234466,104159,0,0,,0.0,-0.56,0.23,0.77,0.19,-0.06,1.03,0.23,-10.12,1.44,2.17,0.0,0.0,0.0,-9.34,1.42,2.59
1738248574.043503,104160,0,0,,0.0,-0.57,0.23,0.77,0.18,-0.02,0.96,0.16,-9.36,1.32,1.92,0.0,0.0,0.0,-9.39,1.45,2.41
1738248574.057901,104161,0,0,,0.0,-0.57,0.24,0.76,0.18,0.27,0.99,0.09,-9.28,1.24,2.27,0.0,0.0,0.0,-9.43,1.48,2.23
1738248574.0738068,104162,0,0,,0.0,-0.58,0.24,0.76,0.18,0.39,1.01,0.06,-9.14,1.51,2.01,0.0,0.0,0.0,-9.45,1.49,2.13
1738248574.0938346,104163,0,0,,0.0,-0.59,0.25,0.75,0.18,0.4,1.1,0.03,-9.43,1.43,2.56,0.0,0.0,0.0,-9.51,1.52,1.81
1738248574.1083462,104164,0,0,,0.0,-0.59,0.25,0.74,0.18,0.32,1.1,0.04,-9.6,1.13,1.24,0.0,0.0,0.0,-9.53,1.53,1.71
1738248574.1243467,104165,0,0,,0.0,-0.6,0.25,0.74,0.18,0.32,1.14,0.03,-9.89,1.03,1.06,0.0,0.0,0.0,-9.55,1.54,1.6
1738248574.1433282,104166,0,0,,0.0,-0.61,0.26,0.73,0.18,0.33,1.1,0.04,-9.89,0.97,0.09,0.0,0.0,0.0,-9.58,1.56,1.38
1738248574.1580472,104167,0,0,,0.0,-0.61,0.26,0.73,0.18,0.36,1.07,0.03,-10.0,1.44,0.18,0.0,0.0,0.0,-9.6,1.57,1.17
1738248574.1729784,104168,0,0,,0.0,-0.62,0.26,0.72,0.18,0.33,1.02,0.04,-9.8,1.29,0.1,0.0,0.0,0.0,-9.61,1.58,1.07
1738248574.1939914,104169,0,0,,0.0,-0.62,0.27,0.71,0.17,0.27,1.0,0.06,-9.65,1.38,0.5,0.0,0.0,0.0,-9.63,1.6,0.87
1738248574.2087655,104170,0,0,,0.0,-0.63,0.27,0.71,0.17,0.17,1.0,0.08,-9.28,1.59,-0.01,0.0,0.0,0.0,-9.64,1.61,0.68
1738248574.224521,104171,0,0,,0.0,-0.63,0.27,0.7,0.17,0.09,1.04,0.09,-9.73,1.69,0.2,0.0,0.0,0.0,-9.65,1.63,0.49
1738248574.244086,104172,0,0,,0.0,-0.64,0.27,0.7,0.17,-0.09,1.05,0.1,-9.55,1.45,-0.46,0.0,0.0,0.0,-9.66,1.65,0.29
1738248574.2587814,104173,0,0,,0.0,-0.64,0.27,0.69,0.16,-0.07,1.08,0.07,-9.71,1.51,-0.53,0.0,0.0,0.0,-9.66,1.65,0.19
1738248574.2745905,104174,0,0,,0.0,-0.65,0.28,0.69,0.16,-0.05,1.07,0.07,-9.72,1.51,-0.6,0.0,0.0,0.0,-9.66,1.67,0.0
1738248574.2951288,104175,0,0,,0.0,-0.66,0.28,0.68,0.16,0.05,1.11,0.04,-9.67,1.42,-0.78,0.0,0.0,0.0,-9.65,1.67,-0.21
1738248574.3087761,104176,0,0,,0.0,-0.66,0.28,0.68,0.16,0.15,1.16,0.02,-9.74,1.48,-0.39,0.0,0.0,0.0,-9.65,1.67,-0.32
1738248574.3238502,104177,0,0,,0.0,-0.67,0.28,0.67,0.16,0.18,1.21,-0.0,-9.82,1.63,-0.45,0.0,0.0,0.0,-9.65,1.67,-0.44
1738248574.3432765,104178,0,0,,0.0,-0.68,0.29,0.66,0.15,0.2,1.28,-0.02,-9.9,1.6,-1.0,0.0,0.0,0.0,-9.63,1.67,-0.68
1738248574.3578606,104179,0,0,,0.0,-0.68,0.29,0.65,0.15,0.29,1.41,-0.09,-10.59,1.76,-1.17,0.0,0.0,0.0,-9.61,1.65,-0.95
1738248574.3733907,104180,0,0,,0.0,-0.69,0.29,0.64,0.15,0.34,1.45,-0.09,-10.83,1.3,-0.84,0.0,0.0,0.0,-9.6,1.64,-1.09
1738248574.393692,104181,0,0,,0.0,-0.7,0.3,0.63,0.15,0.45,1.55,-0.14,-10.55,1.08,-1.61,0.0,0.0,0.0,-9.57,1.6,-1.39
1738248574.4083292,104182,0,0,,0.0,-0.71,0.3,0.62,0.15,0.43,1.7,-0.21,-10.79,0.9,-1.6,0.0,0.0,0.0,-9.52,1.56,-1.71
1738248574.4234672,104183,0,0,,0.0,-0.72,0.3,0.61,0.15,0.37,1.8,-0.25,-10.99,0.83,-0.97,0.0,0.0,0.0,-9.5,1.53,-1.88
1738248574.4438105,104184,0,0,,0.0,-0.73,0.3,0.59,0.15,0.31,1.96,-0.3,-11.48,0.63,-1.36,0.0,0.0,0.0,-9.43,1.46,-2.24
1738248574.458197,104185,0,0,,0.0,-0.74,0.31,0.59,0.15,0.42,2.14,-0.36,-12.17,-0.47,-0.63,0.0,0.0,0.0,-9.34,1.38,-2.63
1738248574.473542,104186,0,0,,0.0,-0.75,0.31,0.57,0.15,0.53,2.2,-0.4,-11.94,1.99,-2.64,0.0,0.0,0.0,-9.29,1.33,-2.84
1738248574.494274,104187,0,0,,0.0,-0.76,0.31,0.55,0.14,0.33,2.55,-0.52,-14.84,0.31,0.92,0.0,0.0,0.0,-9.15,1.21,-3.29
1738248574.5087175,104188,0,0,,0.0,-0.77,0.31,0.54,0.14,0.41,2.73,-0.48,-12.51,-0.5,-0.22,0.0,0.0,0.0,-8.98,1.1,-3.76
1738248574.5241373,104189,0,0,,0.0,-0.79,0.31,0.51,0.14,0.55,2.96,-0.42,-13.45,-1.74,1.93,0.0,0.0,0.0,-8.87,1.04,-4.02
1738248574.5438082,104190,0,0,,0.0,-0.8,0.32,0.48,0.14,0.79,3.08,-0.37,-13.95,0.11,3.54,0.0,0.0,0.0,-8.63,0.91,-4.56
1738248574.5587792,104191,0,0,,0.0,-0.81,0.32,0.47,0.14,0.71,3.29,-0.12,-14.29,1.44,0.56,0.0,0.0,0.0,-8.33,0.81,-5.1
1738248574.573808,104192,0,0,,0.0,-0.83,0.33,0.44,0.13,0.58,3.54,-0.12,-17.11,5.39,-4.07,0.0,0.0,0.0,-8.15,0.78,-5.39
1738248574.5941129,104193,0,0,,0.0,-0.84,0.33,0.41,0.11,-0.31,3.71,-0.08,-16.77,2.25,-3.56,0.0,0.0,0.0,-7.74,0.76,-5.96
1738248574.6093862,104194,0,0,,0.0,-0.85,0.33,0.4,0.11,-0.4,3.24,0.11,-12.62,1.15,0.35,0.0,0.0,0.0,-7.33,0.83,-6.44
1738248574.624357,104195,0,0,,0.0,-0.86,0.34,0.38,0.1,-0.09,2.9,0.16,-12.06,0.11,0.89,0.0,0.0,0.0,-7.15,0.85,-6.65
1738248574.643652,104196,0,0,,0.0,-0.86,0.34,0.36,0.1,0.45,1.83,0.24,-9.62,0.26,2.78,0.0,0.0,0.0,-6.87,0.84,-6.94
1738248574.658468,104197,0,0,,0.0,-0.86,0.35,0.36,0.1,0.76,0.81,0.26,-8.27,1.35,0.94,0.0,0.0,0.0,-6.72,0.77,-7.09
1738248574.6740932,104198,0,0,,0.0,-0.86,0.35,0.36,0.1,0.7,0.35,0.26,-7.43,2.18,0.68,0.0,0.0,0.0,-6.69,0.74,-7.12
1738248574.6939085,104199,0,0,,0.0,-0.86,0.35,0.36,0.11,0.39,-0.59,0.32,-6.74,1.76,0.42,0.0,0.0,0.0,-6.74,0.71,-7.08
1738248574.7085528,104200,0,0,,0.0,-0.85,0.35,0.37,0.11,0.22,-1.52,0.38,-6.44,-0.15,-0.52,0.0,0.0,0.0,-6.91,0.73,-6.91
1738248574.7242482,104201,0,0,,0.0,-0.84,0.36,0.38,0.12,0.34,-1.95,0.34,-6.42,-0.37,-1.09,0.0,0.0,0.0,-7.04,0.73,-6.78
1738248574.7441518,104202,0,0,,0.0,-0.83,0.36,0.41,0.13,0.7,-2.7,0.28,-6.69,-0.2,-1.83,0.0,0.0,0.0,-7.35,0.69,-6.44
1738248574.7585163,104203,0,0,,0.0,-0.82,0.36,0.42,0.14,0.85,-3.34,0.29,-7.18,-0.33,-2.26,0.0,0.0,0.0,-7.73,0.63,-5.98
1738248574.7735577,104204,0,0,,0.0,-0.8,0.36,0.44,0.16,0.88,-3.62,0.27,-7.43,0.17,-2.46,0.0,0.0,0.0,-7.94,0.6,-5.71
1738248574.7931175,104205,0,0,,0.0,-0.79,0.36,0.46,0.17,0.61,-4.17,0.27,-7.96,1.09,-3.04,0.0,0.0,0.0,-8.36,0.57,-5.08
1738248574.8080454,104206,0,0,,0.0,-0.77,0.35,0.49,0.19,0.07,-4.67,0.26,-8.8,0.88,-3.65,0.0,0.0,0.0,-8.77,0.59,-4.33
1738248574.823272,104207,0,0,,0.0,-0.76,0.35,0.51,0.19,-0.16,-4.88,0.24,-9.14,0.88,-3.99,0.0,0.0,0.0,-8.96,0.62,-3.91
1738248574.8403764,104208,0,0,,0.0,-0.73,0.34,0.55,0.21,-0.69,-5.22,0.24,-10.0,0.93,-4.35,0.0,0.0,0.0,-9.31,0.7,-2.99
1738248574.8565667,104209,0,0,,0.0,-0.71,0.32,0.59,0.21,-1.03,-5.35,0.24,-11.99,0.97,-4.48,0.0,0.0,0.0,-9.56,0.8,-1.99
1738248574.8714683,104210,0,0,,0.0,-0.69,0.31,0.62,0.22,-1.57,-5.54,0.2,-12.74,1.1,-4.69,0.0,0.0,0.0,-9.65,0.85,-1.46
1738248574.8871727,104211,0,0,,0.0,-0.66,0.29,0.66,0.22,-1.9,-5.6,0.13,-14.06,1.8,-5.94,0.0,0.0,0.0,-9.75,0.91,-0.38
1738248574.905646,104212,0,0,,0.0,-0.63,0.27,0.7,0.22,-2.02,-5.58,0.09,-14.96,0.96,-6.04,0.0,0.0,0.0,-9.73,0.91,0.7
1738248574.9207537,104213,0,0,,0.0,-0.61,0.25,0.72,0.22,-1.95,-5.43,-0.06,-16.02,0.24,-6.43,0.0,0.0,0.0,-9.68,0.89,1.22
1738248574.9369757,104214,0,0,,0.0,-0.58,0.23,0.75,0.23,-1.71,-5.36,-0.1,-15.15,-1.3,-5.76,0.0,0.0,0.0,-9.51,0.81,2.23
1738248574.9557827,104215,0,0,,0.0,-0.54,0.21,0.78,0.24,-0.63,-5.03,-0.28,-14.27,-1.72,-6.46,0.0,0.0,0.0,-9.26,0.73,3.13
1738248574.9706006,104216,0,0,,0.0,-0.53,0.21,0.79,0.25,0.56,-4.49,-0.42,-13.41,-1.31,-6.55,0.0,0.0,0.0,-9.12,0.72,3.53
1738248574.986865,104217,0,0,,0.0,-0.49,0.21,0.8,0.26,1.01,-4.17,-0.38,-10.65,0.76,-7.21,0.0,0.0,0.0,-8.82,0.75,4.2
1738248575.006071,104218,0,0,,0.0,-0.46,0.21,0.82,0.27,1.39,-3.33,-0.03,-9.0,1.71,-8.24,0.0,0.0,0.0,-8.56,0.88,4.7
1738248575.0203254,104219,0,0,,0.0,-0.45,0.21,0.82,0.28,1.2,-2.18,0.25,-7.77,2.1,-8.88,0.0,0.0,0.0,-8.45,0.96,4.86
1738248575.0366619,104220,0,0,,0.0,-0.44,0.22,0.82,0.28,0.73,-1.49,0.27,-7.21,1.72,-9.47,0.0,0.0,0.0,-8.34,1.04,5.04
1738248575.056173,104221,0,0,,0.0,-0.45,0.21,0.82,0.27,-0.47,-0.04,0.25,-8.48,1.01,-7.84,0.0,0.0,0.0,-8.36,1.01,5.01
1738248575.070639,104222,0,0,,0.0,-0.45,0.21,0.82,0.27,-1.26,1.02,0.23,-9.02,0.96,-7.49,0.0,0.0,0.0,-8.41,0.97,4.94
1738248575.0865197,104223,0,0,,0.0,-0.47,0.2,0.82,0.26,-1.6,1.37,0.25,-9.8,0.53,-7.08,0.0,0.0,0.0,-8.54,0.85,4.73
1738248575.1061997,104224,0,0,,0.0,-0.49,0.19,0.82,0.24,-2.1,1.85,0.28,-15.08,2.17,15.8,0.0,0.0,0.0,-8.71,0.71,4.44
1738248575.120905,104225,0,0,,0.0,-0.49,0.18,0.82,0.23,-1.65,1.21,0.33,-23.66,0.2,37.54,0.0,0.0,0.0,-8.76,0.66,4.35
1738248575.136834,104226,0,0,,0.0,-0.5,0.18,0.82,0.23,-0.99,0.05,0.39,-5.99,-4.19,-10.13,0.0,0.0,0.0,-8.75,0.67,4.35
1738248575.1562417,104227,0,0,,0.0,-0.5,0.18,0.82,0.22,-0.75,0.39,0.73,-12.24,-2.04,5.21,0.0,0.0,0.0,-8.8,0.72,4.24
1738248575.1706147,104228,0,0,,0.0,-0.51,0.18,0.81,0.22,0.3,1.32,0.31,-14.57,-3.79,4.12,0.0,0.0,0.0,-8.86,0.76,4.13
1738248575.1872725,104229,0,0,,0.0,-0.51,0.19,0.81,0.21,0.56,1.24,0.41,-11.02,2.59,0.13,0.0,0.0,0.0,-8.95,0.88,3.9
1738248575.205868,104230,0,0,,0.0,-0.52,0.2,0.8,0.21,0.3,1.23,0.42,-9.52,4.11,2.01,0.0,0.0,0.0,-9.03,0.96,3.69
1738248575.221186,104231,0,0,,0.0,-0.53,0.2,0.8,0.2,-0.49,1.07,0.49,-8.78,2.89,2.76,0.0,0.0,0.0,-9.06,0.99,3.6
1738248575.2369356,104232,0,0,,0.0,-0.53,0.2,0.8,0.2,-0.28,1.11,0.54,-8.93,0.97,1.38,0.0,0.0,0.0,-9.12,1.06,3.42
1738248575.2560298,104233,0,0,,0.0,-0.54,0.2,0.79,0.19,0.07,1.02,0.47,-9.77,1.0,1.44,0.0,0.0,0.0,-9.18,1.15,3.24
1738248575.2706387,104234,0,0,,0.0,-0.54,0.21,0.79,0.19,0.65,0.87,0.35,-10.18,-0.1,1.01,0.0,0.0,0.0,-9.2,1.2,3.16
1738248575.2873123,104235,0,0,,0.0,-0.55,0.22,0.78,0.19,0.75,0.87,0.35,-10.42,-0.12,0.37,0.0,0.0,0.0,-9.24,1.31,2.98
1738248575.306208,104236,0,0,,0.0,-0.55,0.23,0.78,0.19,0.87,0.9,0.31,-10.64,1.53,2.19,0.0,0.0,0.0,-9.29,1.41,2.8
1738248575.3210545,104237,0,0,,0.0,-0.55,0.23,0.78,0.19,0.57,0.89,0.23,-9.93,2.02,1.67,0.0,0.0,0.0,-9.31,1.45,2.71
1738248575.3368645,104238,0,0,,0.0,-0.56,0.24,0.77,0.19,0.19,0.94,0.22,-9.34,2.37,2.83,0.0,0.0,0.0,-9.35,1.5,2.54
1738248575.3565211,104239,0,0,,0.0,-0.57,0.24,0.77,0.19,0.13,0.94,0.18,-8.82,2.52,2.17,0.0,0.0,0.0,-9.39,1.53,2.36
1738248575.370523,104240,0,0,,0.0,-0.57,0.24,0.76,0.18,0.08,0.96,0.11,-8.91,1.69,2.28,0.0,0.0,0.0,-9.41,1.55,2.28
1738248575.3869045,104241,0,0,,0.0,-0.58,0.24,0.76,0.18,0.22,1.05,0.05,-8.96,1.72,1.91,0.0,0.0,0.0,-9.45,1.57,2.08
1738248575.40626,104242,0,0,,0.0,-0.59,0.25,0.75,0.18,0.24,1.08,0.04,-9.4,1.44,1.64,0.0,0.0,0.0,-9.49,1.58,1.87
1738248575.4209666,104243,0,0,,0.0,-0.59,0.25,0.75,0.18,0.34,1.12,0.03,-9.36,1.39,0.97,0.0,0.0,0.0,-9.51,1.59,1.76
1738248575.4372108,104244,0,0,,0.0,-0.6,0.26,0.74,0.18,0.4,1.19,0.02,-10.01,0.74,1.14,0.0,0.0,0.0,-9.54,1.61,1.54
1738248575.4562838,104245,0,0,,0.0,-0.6,0.26,0.73,0.18,0.49,1.19,0.01,-9.67,1.21,0.35,0.0,0.0,0.0,-9.58,1.62,1.3
1738248575.4708033,104246,0,0,,0.0,-0.61,0.26,0.73,0.18,0.52,1.16,0.0,-9.84,1.19,0.7,0.0,0.0,0.0,-9.59,1.63,1.19
1738248575.487519,104247,0,0,,0.0,-0.61,0.27,0.72,0.18,0.42,1.1,0.01,-9.64,1.68,-0.22,0.0,0.0,0.0,-9.61,1.64,0.96
1738248575.506012,104248,0,0,,0.0,-0.62,0.27,0.71,0.18,0.36,1.1,0.01,-9.84,1.54,0.0,0.0,0.0,0.0,-9.63,1.65,0.75
1738248575.5211737,104249,0,0,,0.0,-0.63,0.28,0.71,0.18,0.23,1.05,0.02,-9.8,1.25,-0.22,0.0,0.0,0.0,-9.64,1.65,0.65
1738248575.5375986,104250,0,0,,0.0,-0.63,0.28,0.7,0.18,0.17,1.05,0.03,-9.57,1.31,0.03,0.0,0.0,0.0,-9.65,1.66,0.45
1738248575.556468,104251,0,0,,0.0,-0.64,0.28,0.7,0.17,0.15,1.05,0.03,-9.27,1.51,-0.36,0.0,0.0,0.0,-9.66,1.66,0.25
1738248575.5710773,104252,0,0,,0.0,-0.64,0.28,0.69,0.17,0.01,1.09,0.05,-9.59,1.54,0.11,0.0,0.0,0.0,-9.66,1.67,0.15
1738248575.5873034,104253,0,0,,0.0,-0.65,0.28,0.68,0.17,-0.07,1.11,0.03,-9.63,1.49,-1.0,0.0,0.0,0.0,-9.66,1.68,-0.05
1738248575.6065323,104254,0,0,,0.0,-0.66,0.29,0.68,0.16,-0.06,1.13,0.03,-10.04,0.95,-0.15,0.0,0.0,0.0,-9.65,1.68,-0.26
1738248575.620481,104255,0,0,,0.0,-0.66,0.29,0.67,0.16,0.11,1.14,-0.0,-9.57,1.24,-1.34,0.0,0.0,0.0,-9.65,1.68,-0.37
1738248575.6375115,104256,0,0,,0.0,-0.67,0.29,0.67,0.16,0.27,1.22,-0.02,-9.97,1.29,-0.5,0.0,0.0,0.0,-9.64,1.68,-0.6
1738248575.6569462,104257,0,0,,0.0,-0.68,0.29,0.66,0.16,0.28,1.23,-0.04,-9.99,1.45,-1.21,0.0,0.0,0.0,-9.62,1.66,-0.84
1738248575.6713827,104258,0,0,,0.0,-0.68,0.3,0.65,0.16,0.27,1.34,-0.06,-10.4,1.19,-0.77,0.0,0.0,0.0,-9.61,1.66,-0.97
1738248575.6877637,104259,0,0,,0.0,-0.69,0.3,0.64,0.16,0.28,1.41,-0.09,-10.62,1.3,-1.55,0.0,0.0,0.0,-9.58,1.63,-1.24
1738248575.706808,104260,0,0,,0.0,-0.7,0.3,0.63,0.16,0.29,1.47,-0.11,-10.79,0.88,-1.38,0.0,0.0,0.0,-9.55,1.6,-1.53
1738248575.7207792,104261,0,0,,0.0,-0.7,0.3,0.62,0.16,0.33,1.55,-0.15,-10.38,1.02,-2.1,0.0,0.0,0.0,-9.53,1.58,-1.67
1738248575.7376928,104262,0,0,,0.0,-0.71,0.31,0.61,0.15,0.25,1.7,-0.22,-10.65,0.72,-1.96,0.0,0.0,0.0,-9.47,1.53,-1.99
1738248575.7572272,104263,0,0,,0.0,-0.72,0.31,0.6,0.15,0.22,1.77,-0.27,-11.94,-0.03,-0.29,0.0,0.0,0.0,-9.41,1.47,-2.33
1738248575.7712245,104264,0,0,,0.0,-0.73,0.31,0.59,0.15,0.26,1.87,-0.37,-11.95,1.02,-2.0,0.0,0.0,0.0,-9.37,1.43,-2.5
1738248575.7879848,104265,0,0,,0.0,-0.74,0.31,0.58,0.15,0.14,2.06,-0.49,-14.33,0.52,-0.21,0.0,0.0,0.0,-9.28,1.34,-2.86
1738248575.8069537,104266,0,0,,0.0,-0.75,0.31,0.56,0.15,0.09,2.07,-0.53,-12.52,0.53,-2.23,0.0,0.0,0.0,-9.17,1.23,-3.24
1738248575.8220298,104267,0,0,,0.0,-0.76,0.31,0.55,0.15,0.32,2.27,-0.5,-12.74,-0.72,-1.45,0.0,0.0,0.0,-9.1,1.18,-3.44
1738248575.8385303,104268,0,0,,0.0,-0.77,0.31,0.53,0.14,0.59,2.47,-0.55,-13.39,-1.27,1.78,0.0,0.0,0.0,-8.94,1.05,-3.88
1738248575.857728,104269,0,0,,0.0,-0.79,0.32,0.51,0.15,0.8,2.48,-0.45,-12.18,-2.19,1.49,0.0,0.0,0.0,-8.75,0.91,-4.33
1738248575.8727784,104270,0,0,,0.0,-0.79,0.32,0.5,0.15,1.02,2.67,-0.29,-12.22,-2.36,1.17,0.0,0.0,0.0,-8.63,0.84,-4.56
1738248575.8889058,104271,0,0,,0.0,-0.81,0.33,0.47,0.15,1.18,3.06,-0.27,-12.83,1.23,-0.85,0.0,0.0,0.0,-8.36,0.69,-5.06
1738248575.9074664,104272,0,0,,0.0,-0.82,0.33,0.44,0.14,1.08,3.21,-0.24,-14.84,5.43,-3.96,0.0,0.0,0.0,-8.03,0.58,-5.59
1738248575.9226248,104273,0,0,,0.0,-0.83,0.34,0.43,0.14,-0.29,3.23,-0.07,-14.35,3.66,-3.14,0.0,0.0,0.0,-7.85,0.59,-5.84
1738248575.9392676,104274,0,0,,0.0,-0.84,0.34,0.41,0.12,-0.45,2.76,-0.03,-11.75,0.64,0.93,0.0,0.0,0.0,-7.51,0.65,-6.26
1738248575.957986,104275,0,0,,0.0,-0.85,0.34,0.39,0.12,-0.14,2.4,-0.0,-10.63,0.37,3.4,0.0,0.0,0.0,-7.24,0.64,-6.57
1738248575.972679,104276,0,0,,0.0,-0.85,0.34,0.38,0.12,0.59,1.48,0.08,-9.19,0.33,1.48,0.0,0.0,0.0,-7.14,0.61,-6.68
1738248575.9897385,104277,0,0,,0.0,-0.85,0.35,0.37,0.12,0.87,0.65,0.16,-9.29,1.51,1.62,0.0,0.0,0.0,-7.03,0.53,-6.81
1738248576.007736,104278,0,0,,0.0,-0.85,0.35,0.37,0.13,0.88,0.26,0.18,-8.8,2.4,0.96,0.0,0.0,0.0,-7.02,0.45,-6.82
1738248576.0221267,104279,0,0,,0.0,-0.85,0.35,0.37,0.13,0.46,-0.55,0.25,-8.43,2.11,0.68,0.0,0.0,0.0,-7.06,0.44,-6.79
1738248576.0400722,104280,0,0,,0.0,-0.84,0.36,0.38,0.13,0.16,-1.36,0.28,-7.8,2.04,-0.45,0.0,0.0,0.0,-7.21,0.44,-6.63
1738248576.0577269,104281,0,0,,0.0,-0.84,0.36,0.4,0.14,0.05,-1.75,0.32,-7.66,1.5,-1.12,0.0,0.0,0.0,-7.45,0.49,-6.35
1738248576.0724216,104282,0,0,,0.0,-0.83,0.36,0.41,0.14,0.06,-2.46,0.36,-7.82,0.5,-1.69,0.0,0.0,0.0,-7.59,0.51,-6.17
1738248576.089828,104283,0,0,,0.0,-0.82,0.36,0.43,0.15,0.35,-3.13,0.36,-8.02,0.0,-2.28,0.0,0.0,0.0,-7.93,0.53,-5.73
1738248576.1079407,104284,0,0,,0.0,-0.8,0.35,0.46,0.17,0.52,-3.43,0.34,-8.48,0.33,-2.93,0.0,0.0,0.0,-8.31,0.53,-5.17
1738248576.1227968,104285,0,0,,0.0,-0.79,0.35,0.47,0.18,0.66,-3.98,0.37,-8.8,0.51,-3.13,0.0,0.0,0.0,-8.5,0.53,-4.85
1738248576.1400747,104286,0,0,,0.0,-0.77,0.35,0.5,0.19,0.5,-4.45,0.41,-10.13,0.36,-3.6,0.0,0.0,0.0,-8.87,0.54,-4.13
1738248576.1581783,104287,0,0,,0.0,-0.74,0.35,0.54,0.21,0.29,-4.81,0.42,-10.94,0.12,-3.85,0.0,0.0,0.0,-9.21,0.59,-3.31
1738248576.1729703,104288,0,0,,0.0,-0.73,0.34,0.55,0.22,0.15,-4.93,0.42,-11.3,0.05,-3.98,0.0,0.0,0.0,-9.35,0.63,-2.86
1738248576.190507,104289,0,0,,0.0,-0.7,0.33,0.59,0.23,-0.39,-5.08,0.4,-12.17,0.42,-4.61,0.0,0.0,0.0,-9.58,0.71,-1.93
1738248576.2087,104290,0,0,,0.0,-0.67,0.32,0.63,0.24,-1.14,-5.12,0.33,-12.88,0.64,-5.33,0.0,0.0,0.0,-9.72,0.8,-0.96
1738248576.2227707,104291,0,0,,0.0,-0.65,0.31,0.65,0.24,-1.47,-5.08,0.28,-13.04,1.03,-5.3,0.0,0.0,0.0,-9.75,0.84,-0.47
1738248576.240794,104292,0,0,,0.0,-0.63,0.29,0.68,0.24,-2.11,-4.99,0.13,-13.07,0.83,-5.72,0.0,0.0,0.0,-9.75,0.87,0.5
1738248576.2583928,104293,0,0,,0.0,-0.6,0.26,0.72,0.24,-2.37,-4.78,-0.05,-13.08,-0.01,-6.42,0.0,0.0,0.0,-9.66,0.83,1.45
1738248576.2727692,104294,0,0,,0.0,-0.59,0.25,0.73,0.24,-2.33,-4.65,-0.12,-13.34,-0.39,-6.44,0.0,0.0,0.0,-9.58,0.78,1.9
1738248576.2906978,104295,0,0,,0.0,-0.56,0.22,0.76,0.24,-1.84,-4.41,-0.23,-13.58,-0.82,-6.52,0.0,0.0,0.0,-9.38,0.65,2.75
1738248576.308355,104296,0,0,,0.0,-0.53,0.2,0.79,0.24,-1.0,-4.05,-0.26,-12.41,-0.97,-6.91,0.0,0.0,0.0,-9.14,0.53,3.51
1738248576.3232536,104297,0,0,,0.0,-0.52,0.19,0.8,0.25,-0.58,-3.8,-0.25,-11.2,-0.55,-7.2,0.0,0.0,0.0,-9.0,0.49,3.85
1738248576.3411174,104298,0,0,,0.0,-0.49,0.18,0.81,0.26,0.05,-3.17,-0.14,-10.4,-0.06,-7.42,0.0,0.0,0.0,-8.73,0.45,4.42
1738248576.3581054,104299,0,0,,0.0,-0.47,0.18,0.82,0.26,0.39,-2.26,0.02,-8.16,1.14,-8.72,0.0,0.0,0.0,-8.51,0.48,4.84
1738248576.373125,104300,0,0,,0.0,-0.46,0.18,0.83,0.26,0.4,-1.69,0.08,-7.65,1.44,-8.96,0.0,0.0,0.0,-8.43,0.5,4.97
1738248576.39059,104301,0,0,,0.0,-0.46,0.18,0.83,0.26,0.08,-0.45,0.09,-7.44,1.35,-9.48,0.0,0.0,0.0,-8.35,0.54,5.1
1738248576.4082665,104302,0,0,,0.0,-0.46,0.18,0.83,0.26,-0.25,0.76,0.08,-8.4,0.8,-8.95,0.0,0.0,0.0,-8.4,0.53,5.02
1738248576.4230907,104303,0,0,,0.0,-0.47,0.18,0.83,0.26,-0.3,1.24,0.06,-9.38,0.85,-8.25,0.0,0.0,0.0,-8.46,0.52,4.92
1738248576.4405422,104304,0,0,,0.0,-0.48,0.18,0.82,0.26,-0.25,1.88,0.04,-12.42,1.18,1.78,0.0,0.0,0.0,-8.62,0.51,4.63
1738248576.4581528,104305,0,0,,0.0,-0.48,0.19,0.82,0.26,1.01,-0.05,0.04,-16.72,1.38,10.6,0.0,0.0,0.0,-8.68,0.56,4.52
1738248576.4733899,104306,0,0,,0.0,-0.48,0.19,0.82,0.26,0.66,-0.23,0.37,-8.04,2.72,-3.92,0.0,0.0,0.0,-8.67,0.62,4.53
1738248576.4909089,104307,0,0,,0.0,-0.49,0.19,0.81,0.25,-0.49,0.98,0.49,-12.14,-2.13,3.63,0.0,0.0,0.0,-8.71,0.7,4.44
1738248576.5086646,104308,0,0,,0.0,-0.5,0.19,0.81,0.24,-0.48,1.29,0.32,-13.92,-1.62,1.91,0.0,0.0,0.0,-8.82,0.7,4.21
1738248576.5230603,104309,0,0,,0.0,-0.5,0.19,0.81,0.24,-0.82,1.35,0.52,-10.18,1.18,-2.68,0.0,0.0,0.0,-8.87,0.71,4.1
1738248576.5408263,104310,0,0,,0.0,-0.52,0.19,0.81,0.23,-1.42,1.21,0.41,-9.94,1.88,1.08,0.0,0.0,0.0,-8.96,0.68,3.9
1738248576.5587113,104311,0,0,,0.0,-0.52,0.18,0.8,0.21,-0.99,1.03,0.52,-9.19,-0.47,2.63,0.0,0.0,0.0,-9.03,0.69,3.73
1738248576.5729737,104312,0,0,,0.0,-0.53,0.18,0.8,0.21,-0.37,1.05,0.57,-8.65,0.36,1.36,0.0,0.0,0.0,-9.07,0.72,3.64
1738248576.591223,104313,0,0,,0.0,-0.53,0.19,0.8,0.21,0.66,0.86,0.41,-8.64,0.78,2.58,0.0,0.0,0.0,-9.12,0.83,3.48
1738248576.6086,104314,0,0,,0.0,-0.54,0.2,0.79,0.21,0.98,0.8,0.39,-9.97,0.39,2.13,0.0,0.0,0.0,-9.17,0.96,3.32
1738248576.623246,104315,0,0,,0.0,-0.54,0.21,0.79,0.21,0.91,0.84,0.38,-9.97,0.08,2.33,0.0,0.0,0.0,-9.19,1.02,3.24
1738248576.6407764,104316,0,0,,0.0,-0.54,0.22,0.78,0.21,0.54,0.92,0.3,-9.5,1.67,2.57,0.0,0.0,0.0,-9.24,1.12,3.06
1738248576.6584613,104317,0,0,,0.0,-0.55,0.22,0.78,0.2,0.02,1.0,0.32,-9.63,2.26,1.98,0.0,0.0,0.0,-9.29,1.19,2.88
1738248576.673401,104318,0,0,,0.0,-0.55,0.22,0.78,0.2,-0.15,1.0,0.29,-9.48,1.82,1.62,0.0,0.0,0.0,-9.31,1.21,2.8
1738248576.6913366,104319,0,0,,0.0,-0.56,0.22,0.77,0.2,-0.21,1.04,0.24,-9.52,1.32,1.99,0.0,0.0,0.0,-9.36,1.24,2.61
1738248576.709022,104320,0,0,,0.0,-0.57,0.23,0.77,0.19,0.21,1.01,0.17,-9.37,0.56,1.76,0.0,0.0,0.0,-9.41,1.28,2.43
1738248576.7267869,104321,0,0,,0.0,-0.58,0.24,0.76,0.19,0.45,1.02,0.12,-9.44,0.44,1.91,0.0,0.0,0.0,-9.45,1.33,2.23
1738248576.744457,104322,0,0,,0.0,-0.58,0.24,0.76,0.19,0.78,1.04,0.07,-9.25,1.39,0.95,0.0,0.0,0.0,-9.47,1.35,2.12
1738248576.7606144,104323,0,0,,0.0,-0.58,0.25,0.75,0.19,0.74,1.13,0.03,-9.68,1.1,2.18,0.0,0.0,0.0,-9.51,1.39,1.9
1738248576.7790952,104324,0,0,,0.0,-0.59,0.25,0.74,0.2,0.61,1.11,0.02,-9.76,1.23,1.08,0.0,0.0,0.0,-9.55,1.41,1.68
1738248576.7969608,104325,0,0,,0.0,-0.6,0.26,0.73,0.2,0.58,1.12,0.01,-10.0,0.96,0.88,0.0,0.0,0.0,-9.59,1.43,1.45
1738248576.8116326,104326,0,0,,0.0,-0.6,0.26,0.73,0.2,0.62,1.05,-0.02,-9.86,1.09,0.03,0.0,0.0,0.0,-9.6,1.44,1.35
1738248576.8269029,104327,0,0,,0.0,-0.61,0.27,0.72,0.2,0.61,1.05,-0.03,-9.95,1.18,0.31,0.0,0.0,0.0,-9.63,1.45,1.14
1738248576.8447776,104328,0,0,,0.0,-0.61,0.27,0.72,0.2,0.57,0.96,-0.05,-9.9,1.37,0.0,0.0,0.0,0.0,-9.64,1.45,1.04
1738248576.8608563,104329,0,0,,0.0,-0.62,0.28,0.71,0.2,0.49,0.91,-0.03,-10.01,1.09,0.43,0.0,0.0,0.0,-9.65,1.45,0.85
1738248576.8753903,104330,0,0,,0.0,-0.62,0.28,0.7,0.2,0.42,0.86,-0.02,-10.0,1.3,0.0,0.0,0.0,0.0,-9.66,1.45,0.77
1738248576.893776,104331,0,0,,0.0,-0.62,0.28,0.7,0.2,0.22,0.86,0.01,-9.91,1.35,0.12,0.0,0.0,0.0,-9.67,1.46,0.6
1738248576.9109643,104332,0,0,,0.0,-0.63,0.28,0.7,0.2,-0.01,0.85,0.03,-9.55,1.04,-0.25,0.0,0.0,0.0,-9.68,1.46,0.44
1738248576.9252806,104333,0,0,,0.0,-0.64,0.29,0.69,0.19,-0.02,0.9,0.03,-9.73,0.98,0.55,0.0,0.0,0.0,-9.68,1.46,0.36
1738248576.943707,104334,0,0,,0.0,-0.64,0.29,0.69,0.19,0.0,0.95,0.03,-9.29,1.2,0.03,0.0,0.0,0.0,-9.69,1.47,0.18
1738248576.9608018,104335,0,0,,0.0,-0.65,0.29,0.68,0.19,0.14,1.09,0.01,-9.61,1.25,0.22,0.0,0.0,0.0,-9.69,1.48,-0.01
1738248576.9749777,104336,0,0,,0.0,-0.65,0.29,0.68,0.19,0.19,1.14,0.01,-9.63,1.32,-0.08,0.0,0.0,0.0,-9.69,1.47,-0.12
1738248576.994339,104337,0,0,,0.0,-0.66,0.3,0.67,0.19,0.27,1.24,-0.01,-10.19,1.16,0.03,0.0,0.0,0.0,-9.68,1.47,-0.35
1738248577.0109084,104338,0,0,,0.0,-0.66,0.3,0.66,0.18,0.24,1.31,-0.01,-9.7,1.31,-1.27,0.0,0.0,0.0,-9.67,1.47,-0.6
1738248577.0257058,104339,0,0,,0.0,-0.67,0.3,0.65,0.18,0.21,1.38,-0.04,-10.6,1.07,-0.62,0.0,0.0,0.0,-9.66,1.46,-0.73
1738248577.0442612,104340,0,0,,0.0,-0.68,0.3,0.64,0.18,0.2,1.42,-0.06,-10.72,1.19,-1.2,0.0,0.0,0.0,-9.64,1.45,-1.0
1738248577.0609896,104341,0,0,,0.0,-0.69,0.31,0.63,0.18,0.29,1.48,-0.09,-10.85,0.56,-1.56,0.0,0.0,0.0,-9.61,1.43,-1.28
1738248577.0753562,104342,0,0,,0.0,-0.7,0.31,0.62,0.18,0.32,1.54,-0.11,-10.84,0.58,-1.53,0.0,0.0,0.0,-9.59,1.41,-1.43
1738248577.0945406,104343,0,0,,0.0,-0.7,0.31,0.62,0.18,0.25,1.66,-0.19,-11.08,0.85,-1.28,0.0,0.0,0.0,-9.55,1.37,-1.74
1738248577.110813,104344,0,0,,0.0,-0.71,0.32,0.6,0.17,0.15,1.75,-0.25,-11.13,1.18,-1.88,0.0,0.0,0.0,-9.49,1.32,-2.06
1738248577.1258352,104345,0,0,,0.0,-0.72,0.32,0.59,0.17,0.2,1.78,-0.31,-12.21,0.08,-0.48,0.0,0.0,0.0,-9.46,1.29,-2.23
1738248577.145077,104346,0,0,,0.0,-0.73,0.32,0.58,0.17,0.27,1.88,-0.47,-12.76,2.44,-2.12,0.0,0.0,0.0,-9.38,1.2,-2.57
1738248577.1611383,104347,0,0,,0.0,-0.74,0.32,0.57,0.17,0.18,1.96,-0.57,-11.83,0.3,-0.76,0.0,0.0,0.0,-9.29,1.09,-2.93
1738248577.1763654,104348,0,0,,0.0,-0.75,0.32,0.55,0.17,0.28,2.09,-0.57,-10.81,0.65,-1.42,0.0,0.0,0.0,-9.23,1.03,-3.12
1738248577.195285,104349,0,0,,0.0,-0.76,0.32,0.54,0.17,0.5,2.48,-0.7,-12.64,-0.77,2.31,0.0,0.0,0.0,-9.09,0.89,-3.55
1738248577.211243,104350,0,0,,0.0,-0.77,0.32,0.52,0.17,0.93,2.72,-0.6,-12.56,-0.63,3.4,0.0,0.0,0.0,-8.9,0.71,-4.03
1738248577.2270691,104351,0,0,,0.0,-0.79,0.33,0.49,0.17,1.07,2.87,-0.55,-12.32,-0.87,3.61,0.0,0.0,0.0,-8.79,0.62,-4.28
1738248577.244888,104352,0,0,,0.0,-0.8,0.34,0.47,0.17,1.27,3.2,-0.37,-11.91,-0.27,1.68,0.0,0.0,0.0,-8.52,0.45,-4.82
1738248577.2620175,104353,0,0,,0.0,-0.81,0.34,0.44,0.17,1.11,3.6,-0.32,-14.55,6.13,-5.86,0.0,0.0,0.0,-8.18,0.27,-5.39
1738248577.2770257,104354,0,0,,0.0,-0.83,0.35,0.41,0.16,0.45,3.67,-0.17,-16.38,4.77,-5.46,0.0,0.0,0.0,-7.78,0.24,-5.95
1738248577.295466,104355,0,0,,0.0,-0.83,0.35,0.4,0.15,-0.19,3.29,0.11,-15.93,1.95,-1.81,0.0,0.0,0.0,-7.59,0.26,-6.2
1738248577.312159,104356,0,0,,0.0,-0.84,0.36,0.38,0.15,0.35,2.54,0.18,-12.21,1.05,1.79,0.0,0.0,0.0,-7.25,0.25,-6.59
1738248577.3265977,104357,0,0,,0.0,-0.85,0.36,0.36,0.14,0.51,2.03,0.24,-11.47,1.21,2.49,0.0,0.0,0.0,-7.01,0.22,-6.84
1738248577.3452039,104358,0,0,,0.0,-0.85,0.37,0.36,0.14,0.46,1.08,0.35,-9.93,1.42,0.72,0.0,0.0,0.0,-6.94,0.21,-6.91
1738248577.3616621,104359,0,0,,0.0,-0.85,0.37,0.35,0.14,0.17,0.25,0.42,-9.06,1.62,0.85,0.0,0.0,0.0,-6.88,0.23,-6.98
1738248577.3766418,104360,0,0,,0.0,-0.84,0.38,0.36,0.14,-0.02,-0.13,0.47,-8.18,1.12,0.46,0.0,0.0,0.0,-6.89,0.27,-6.97
1738248577.3953395,104361,0,0,,0.0,-0.84,0.38,0.36,0.14,-0.26,-1.0,0.57,-7.63,0.51,-0.44,0.0,0.0,0.0,-6.99,0.37,-6.86
1738248577.4115717,104362,0,0,,0.0,-0.83,0.38,0.38,0.14,-0.19,-1.83,0.51,-7.11,-0.57,-1.33,0.0,0.0,0.0,-7.2,0.47,-6.64
1738248577.4269295,104363,0,0,,0.0,-0.82,0.38,0.4,0.15,-0.11,-2.22,0.45,-6.88,-0.68,-1.52,0.0,0.0,0.0,-7.49,0.54,-6.29
1738248577.4452865,104364,0,0,,0.0,-0.82,0.38,0.41,0.15,0.1,-2.95,0.31,-6.64,-1.33,-2.31,0.0,0.0,0.0,-7.67,0.55,-6.08
1738248577.4620135,104365,0,0,,0.0,-0.8,0.37,0.43,0.17,0.32,-3.57,0.15,-6.96,-0.85,-2.61,0.0,0.0,0.0,-8.05,0.55,-5.56
1738248577.4773521,104366,0,0,,0.0,-0.78,0.37,0.46,0.18,0.27,-3.87,0.09,-7.4,-0.39,-2.72,0.0,0.0,0.0,-8.46,0.54,-4.92
1738248577.4956102,104367,0,0,,0.0,-0.76,0.36,0.5,0.2,-0.01,-4.4,0.02,-8.15,-0.42,-3.35,0.0,0.0,0.0,-8.66,0.54,-4.56
1738248577.512067,104368,0,0,,0.0,-0.75,0.36,0.52,0.21,-0.3,-4.82,-0.03,-9.08,0.0,-3.68,0.0,0.0,0.0,-9.04,0.56,-3.74
1738248577.5273435,104369,0,0,,0.0,-0.73,0.34,0.55,0.22,-0.53,-4.99,-0.05,-9.42,0.27,-4.01,0.0,0.0,0.0,-9.36,0.59,-2.83
1738248577.546075,104370,0,0,,0.0,-0.7,0.32,0.6,0.23,-1.2,-5.24,-0.07,-11.44,0.98,-4.52,0.0,0.0,0.0,-9.5,0.61,-2.35
1738248577.5623658,104371,0,0,,0.0,-0.69,0.31,0.62,0.23,-1.84,-5.41,-0.12,-12.65,1.2,-5.14,0.0,0.0,0.0,-9.69,0.65,-1.33
1738248577.5773606,104372,0,0,,0.0,-0.66,0.28,0.66,0.23,-2.05,-5.46,-0.14,-12.93,1.38,-5.9,0.0,0.0,0.0,-9.78,0.66,-0.27
1738248577.5965683,104373,0,0,,0.0,-0.63,0.26,0.7,0.23,-2.14,-5.47,-0.22,-14.13,0.69,-6.71,0.0,0.0,0.0,-9.78,0.64,0.25
1738248577.6126585,104374,0,0,,0.0,-0.61,0.24,0.71,0.24,-1.49,-5.32,-0.32,-14.69,-0.21,-8.01,0.0,0.0,0.0,-9.7,0.55,1.29
1738248577.6276798,104375,0,0,,0.0,-0.58,0.22,0.74,0.25,-1.04,-5.19,-0.3,-14.67,-0.28,-8.07,0.0,0.0,0.0,-9.53,0.48,2.24
1738248577.646642,104376,0,0,,0.0,-0.54,0.21,0.77,0.26,-0.2,-4.8,-0.2,-14.25,0.27,-8.14,0.0,0.0,0.0,-9.41,0.45,2.69
1738248577.6625898,104377,0,0,,0.0,-0.53,0.21,0.78,0.26,0.15,-4.23,-0.03,-13.27,0.56,-8.72,0.0,0.0,0.0,-9.15,0.44,3.47
1738248577.6779413,104378,0,0,,0.0,-0.5,0.2,0.8,0.27,0.24,-3.87,0.03,-12.81,0.57,-8.93,0.0,0.0,0.0,-8.88,0.47,4.11
1738248577.6966405,104379,0,0,,0.0,-0.48,0.2,0.81,0.28,0.3,-2.95,0.09,-10.31,1.02,-9.83,0.0,0.0,0.0,-8.76,0.49,4.36
1738248577.7127244,104380,0,0,,0.0,-0.47,0.19,0.81,0.28,0.11,-1.77,0.14,-8.39,1.35,-10.59,0.0,0.0,0.0,-8.58,0.53,4.71
1738248577.7278447,104381,0,0,,0.0,-0.47,0.19,0.82,0.28,-0.03,-1.1,0.19,-7.55,1.43,-11.03,0.0,0.0,0.0,-8.51,0.56,4.84
1738248577.7468278,104382,0,0,,0.0,-0.47,0.19,0.82,0.27,-0.28,0.26,0.25,-7.99,1.41,-10.83,0.0,0.0,0.0,-8.52,0.56,4.82
1738248577.7631423,104383,0,0,,0.0,-0.48,0.19,0.82,0.27,-0.68,1.43,0.22,-9.36,0.95,-9.86,0.0,0.0,0.0,-8.62,0.55,4.63
1738248577.7780464,104384,0,0,,0.0,-0.49,0.19,0.81,0.26,-0.8,1.76,0.18,-12.51,0.54,2.93,0.0,0.0,0.0,-8.74,0.51,4.39
1738248577.7966387,104385,0,0,,0.0,-0.49,0.19,0.81,0.26,-0.16,0.23,0.06,-16.43,-1.19,7.99,0.0,0.0,0.0,-8.75,0.51,4.38
1738248577.8134596,104386,0,0,,0.0,-0.49,0.19,0.81,0.25,-0.42,0.65,0.5,-4.16,-2.98,-10.03,0.0,0.0,0.0,-8.78,0.56,4.31
1738248577.828294,104387,0,0,,0.0,-0.5,0.19,0.8,0.25,-0.26,1.23,0.26,-11.51,-1.42,4.18,0.0,0.0,0.0,-8.89,0.58,4.09
1738248577.8464417,104388,0,0,,0.0,-0.51,0.19,0.8,0.24,-0.23,1.26,0.28,-12.07,-0.95,2.06,0.0,0.0,0.0,-8.93,0.6,3.98
1738248577.8633604,104389,0,0,,0.0,-0.52,0.19,0.8,0.24,-0.85,1.14,0.32,-9.17,2.21,1.56,0.0,0.0,0.0,-9.02,0.6,3.78
1738248577.8780313,104390,0,0,,0.0,-0.53,0.19,0.8,0.23,-0.77,0.99,0.33,-8.82,3.71,1.27,0.0,0.0,0.0,-9.09,0.62,3.62
1738248577.896573,104391,0,0,,0.0,-0.53,0.19,0.79,0.22,-0.51,0.97,0.44,-9.42,1.45,2.57,0.0,0.0,0.0,-9.12,0.64,3.54
1738248577.9131482,104392,0,0,,0.0,-0.54,0.2,0.79,0.22,-0.04,0.9,0.45,-8.44,0.65,1.8,0.0,0.0,0.0,-9.17,0.71,3.37
1738248577.9280255,104393,0,0,,0.0,-0.54,0.2,0.79,0.22,0.27,0.83,0.37,-8.81,0.12,2.16,0.0,0.0,0.0,-9.22,0.8,3.22
1738248577.9465942,104394,0,0,,0.0,-0.55,0.21,0.78,0.22,0.7,0.83,0.33,-10.85,-0.69,1.76,0.0,0.0,0.0,-9.24,0.85,3.14
1738248577.9635305,104395,0,0,,0.0,-0.55,0.22,0.78,0.22,0.66,0.84,0.3,-9.85,1.11,1.33,0.0,0.0,0.0,-9.29,0.95,2.98
1738248577.977915,104396,0,0,,0.0,-0.55,0.22,0.77,0.21,0.4,0.86,0.29,-9.77,1.8,1.41,0.0,0.0,0.0,-9.33,1.01,2.82
1738248577.9966002,104397,0,0,,0.0,-0.56,0.22,0.77,0.21,-0.23,0.84,0.31,-9.96,1.95,1.93,0.0,0.0,0.0,-9.35,1.03,2.75
1738248578.013377,104398,0,0,,0.0,-0.56,0.22,0.77,0.21,-0.45,0.83,0.29,-9.77,1.11,1.84,0.0,0.0,0.0,-9.39,1.07,2.6
1738248578.0281067,104399,0,0,,0.0,-0.57,0.22,0.77,0.2,-0.33,0.82,0.25,-9.36,0.47,1.41,0.0,0.0,0.0,-9.42,1.1,2.46
1738248578.0467498,104400,0,0,,0.0,-0.58,0.23,0.76,0.2,0.14,0.87,0.2,-9.47,0.11,1.67,0.0,0.0,0.0,-9.44,1.12,2.38
1738248578.0634456,104401,0,0,,0.0,-0.58,0.23,0.76,0.2,0.63,0.91,0.13,-9.46,0.63,2.25,0.0,0.0,0.0,-9.48,1.17,2.2
1738248578.077994,104402,0,0,,0.0,-0.58,0.24,0.75,0.2,0.68,0.93,0.11,-9.25,1.21,1.88,0.0,0.0,0.0,-9.51,1.21,2.01
1738248578.0971437,104403,0,0,,0.0,-0.59,0.25,0.74,0.2,0.64,0.99,0.07,-9.36,1.29,1.55,0.0,0.0,0.0,-9.53,1.23,1.91
1738248578.1132221,104404,0,0,,0.0,-0.59,0.25,0.74,0.2,0.5,1.06,0.05,-9.76,1.09,1.64,0.0,0.0,0.0,-9.57,1.26,1.7
1738248578.12805,104405,0,0,,0.0,-0.6,0.25,0.73,0.2,0.49,1.04,0.03,-9.7,1.15,0.59,0.0,0.0,0.0,-9.6,1.28,1.5
1738248578.147132,104406,0,0,,0.0,-0.61,0.26,0.73,0.2,0.5,1.02,0.02,-9.79,0.73,0.65,0.0,0.0,0.0,-9.61,1.29,1.4
1738248578.1637135,104407,0,0,,0.0,-0.61,0.26,0.72,0.2,0.59,0.96,0.01,-9.87,0.83,0.32,0.0,0.0,0.0,-9.64,1.31,1.2
1738248578.178114,104408,0,0,,0.0,-0.61,0.27,0.71,0.2,0.58,0.94,0.0,-9.89,1.16,0.27,0.0,0.0,0.0,-9.66,1.32,1.01
1738248578.196661,104409,0,0,,0.0,-0.62,0.27,0.71,0.2,0.42,0.92,0.01,-9.95,1.28,0.38,0.0,0.0,0.0,-9.67,1.32,0.92
1738248578.2134387,104410,0,0,,0.0,-0.62,0.27,0.71,0.2,0.12,0.92,0.04,-9.87,1.16,0.66,0.0,0.0,0.0,-9.68,1.33,0.75
1738248578.227876,104411,0,0,,0.0,-0.63,0.28,0.7,0.2,0.01,0.91,0.04,-9.42,1.24,-0.19,0.0,0.0,0.0,-9.69,1.34,0.58
1738248578.2471285,104412,0,0,,0.0,-0.63,0.28,0.69,0.19,-0.08,0.97,0.06,-9.66,1.05,0.42,0.0,0.0,0.0,-9.7,1.35,0.49
1738248578.2639813,104413,0,0,,0.0,-0.64,0.28,0.69,0.19,-0.01,1.02,0.05,-9.45,0.78,0.19,0.0,0.0,0.0,-9.7,1.36,0.3
1738248578.2783809,104414,0,0,,0.0,-0.65,0.28,0.68,0.19,0.08,1.07,0.04,-9.85,1.1,0.46,0.0,0.0,0.0,-9.71,1.36,0.09
1738248578.297397,104415,0,0,,0.0,-0.65,0.28,0.68,0.19,0.17,1.14,0.01,-9.46,1.28,-0.6,0.0,0.0,0.0,-9.71,1.36,-0.01
1738248578.3136344,104416,0,0,,0.0,-0.66,0.29,0.67,0.19,0.26,1.28,-0.04,-9.8,0.96,-0.2,0.0,0.0,0.0,-9.7,1.36,-0.25
1738248578.3287804,104417,0,0,,0.0,-0.66,0.29,0.66,0.19,0.28,1.3,-0.05,-9.75,1.37,-0.81,0.0,0.0,0.0,-9.69,1.35,-0.5
1738248578.3472726,104418,0,0,,0.0,-0.67,0.29,0.65,0.18,0.28,1.34,-0.06,-9.81,1.27,-1.03,0.0,0.0,0.0,-9.69,1.34,-0.63
1738248578.364041,104419,0,0,,0.0,-0.68,0.3,0.65,0.18,0.32,1.48,-0.14,-10.56,1.03,-1.33,0.0,0.0,0.0,-9.67,1.31,-0.92
1738248578.3790998,104420,0,0,,0.0,-0.69,0.3,0.64,0.18,0.35,1.51,-0.16,-11.24,0.84,-1.13,0.0,0.0,0.0,-9.64,1.27,-1.21
1738248578.3973815,104421,0,0,,0.0,-0.7,0.3,0.62,0.18,0.39,1.55,-0.17,-11.15,0.97,-1.46,0.0,0.0,0.0,-9.62,1.25,-1.36
1738248578.414476,104422,0,0,,0.0,-0.7,0.31,0.62,0.18,0.38,1.63,-0.2,-11.11,0.49,-1.61,0.0,0.0,0.0,-9.58,1.21,-1.66
1738248578.428827,104423,0,0,,0.0,-0.71,0.31,0.6,0.18,0.34,1.75,-0.27,-11.15,0.67,-1.92,0.0,0.0,0.0,-9.53,1.14,-1.99
1738248578.4477663,104424,0,0,,0.0,-0.72,0.31,0.59,0.18,0.32,1.81,-0.29,-11.3,0.63,-1.69,0.0,0.0,0.0,-9.49,1.11,-2.16
1738248578.4644868,104425,0,0,,0.0,-0.73,0.31,0.58,0.18,0.38,1.9,-0.34,-11.96,-0.03,-1.14,0.0,0.0,0.0,-9.41,1.03,-2.52
1738248578.4794998,104426,0,0,,0.0,-0.74,0.32,0.57,0.18,0.48,2.0,-0.44,-13.21,1.24,-1.69,0.0,0.0,0.0,-9.32,0.93,-2.89
1738248578.4975052,104427,0,0,,0.0,-0.75,0.32,0.55,0.18,0.39,2.12,-0.5,-12.7,-0.65,0.25,0.0,0.0,0.0,-9.26,0.87,-3.08
1738248578.5144742,104428,0,0,,0.0,-0.76,0.32,0.54,0.18,0.5,2.18,-0.5,-11.01,-0.15,-1.58,0.0,0.0,0.0,-9.13,0.75,-3.47
1738248578.5299044,104429,0,0,,0.0,-0.77,0.32,0.52,0.18,0.54,2.37,-0.47,-12.11,-0.44,0.78,0.0,0.0,0.0,-8.96,0.63,-3.91
1738248578.5478854,104430,0,0,,0.0,-0.78,0.33,0.5,0.18,0.7,2.55,-0.48,-11.84,-0.1,1.02,0.0,0.0,0.0,-8.87,0.56,-4.13
1738248578.5649824,104431,0,0,,0.0,-0.79,0.33,0.48,0.17,0.8,2.79,-0.35,-12.46,0.41,1.18,0.0,0.0,0.0,-8.64,0.43,-4.6
1738248578.5801191,104432,0,0,,0.0,-0.8,0.34,0.46,0.17,0.74,2.89,-0.28,-13.97,2.55,0.27,0.0,0.0,0.0,-8.36,0.33,-5.1
1738248578.5982618,104433,0,0,,0.0,-0.82,0.34,0.43,0.17,0.56,3.11,-0.11,-15.64,3.68,-1.16,0.0,0.0,0.0,-8.04,0.26,-5.6
1738248578.6149945,104434,0,0,,0.0,-0.82,0.35,0.42,0.16,0.23,3.19,-0.14,-15.22,1.05,-3.16,0.0,0.0,0.0,-7.86,0.23,-5.84
1738248578.6299136,104435,0,0,,0.0,-0.84,0.35,0.39,0.15,0.01,3.08,-0.13,-12.11,2.0,-3.06,0.0,0.0,0.0,-7.51,0.22,-6.29
1738248578.64842,104436,0,0,,0.0,-0.85,0.35,0.37,0.14,0.14,2.74,-0.06,-11.64,2.13,-2.08,0.0,0.0,0.0,-7.18,0.19,-6.66
1738248578.6654274,104437,0,0,,0.0,-0.85,0.36,0.36,0.14,0.08,2.06,0.1,-10.52,2.45,2.19,0.0,0.0,0.0,-7.05,0.19,-6.8
1738248578.679854,104438,0,0,,0.0,-0.85,0.36,0.35,0.13,-0.15,1.57,0.24,-9.02,1.1,2.03,0.0,0.0,0.0,-6.87,0.26,-6.98
1738248578.6980107,104439,0,0,,0.0,-0.85,0.36,0.35,0.13,-0.25,0.52,0.24,-8.13,1.1,0.96,0.0,0.0,0.0,-6.83,0.32,-7.02
1738248578.7145839,104440,0,0,,0.0,-0.85,0.36,0.36,0.13,-0.16,-0.34,0.21,-7.61,0.52,0.31,0.0,0.0,0.0,-6.85,0.34,-6.99
1738248578.7298532,104441,0,0,,0.0,-0.85,0.36,0.36,0.13,-0.1,-0.76,0.26,-7.47,-1.1,-0.26,0.0,0.0,0.0,-6.98,0.39,-6.86
1738248578.747568,104442,0,0,,0.0,-0.84,0.36,0.38,0.14,0.09,-1.6,0.31,-7.11,-1.43,-0.63,0.0,0.0,0.0,-7.22,0.4,-6.62
1738248578.7647455,104443,0,0,,0.0,-0.84,0.36,0.39,0.14,0.56,-2.39,0.21,-6.91,-0.93,-1.41,0.0,0.0,0.0,-7.37,0.38,-6.45
1738248578.7800786,104444,0,0,,0.0,-0.82,0.36,0.41,0.16,0.7,-2.74,0.18,-7.15,-0.19,-1.92,0.0,0.0,0.0,-7.72,0.32,-6.03
1738248578.7979777,104445,0,0,,0.0,-0.81,0.36,0.43,0.18,0.62,-3.37,0.16,-7.5,-0.06,-1.99,0.0,0.0,0.0,-8.11,0.29,-5.5
1738248578.8148546,104446,0,0,,0.0,-0.8,0.36,0.45,0.18,0.24,-3.94,0.14,-8.32,0.34,-2.64,0.0,0.0,0.0,-8.31,0.29,-5.18
1738248578.830286,104447,0,0,,0.0,-0.78,0.35,0.48,0.2,-0.04,-4.2,0.12,-9.2,0.31,-3.08,0.0,0.0,0.0,-8.72,0.32,-4.47
1738248578.84809,104448,0,0,,0.0,-0.76,0.34,0.52,0.21,-0.57,-4.64,0.08,-9.89,0.15,-3.47,0.0,0.0,0.0,-9.09,0.39,-3.65
1738248578.86507,104449,0,0,,0.0,-0.74,0.33,0.54,0.21,-0.97,-4.96,0.07,-10.9,0.21,-3.51,0.0,0.0,0.0,-9.25,0.43,-3.2
1738248578.8804877,104450,0,0,,0.0,-0.72,0.31,0.58,0.22,-1.33,-5.19,0.07,-12.56,0.72,-3.71,0.0,0.0,0.0,-9.52,0.51,-2.26
1738248578.898277,104451,0,0,,0.0,-0.69,0.29,0.62,0.22,-1.47,-5.28,0.07,-13.01,0.86,-3.94,0.0,0.0,0.0,-9.7,0.57,-1.25
1738248578.9155562,104452,0,0,,0.0,-0.68,0.28,0.64,0.22,-1.64,-5.4,0.07,-13.81,1.5,-4.97,0.0,0.0,0.0,-9.76,0.59,-0.73
1738248578.9302952,104453,0,0,,0.0,-0.65,0.26,0.68,0.23,-1.72,-5.37,0.03,-14.01,0.51,-5.13,0.0,0.0,0.0,-9.78,0.61,0.3
1738248578.9484544,104454,0,0,,0.0,-0.61,0.24,0.72,0.23,-1.62,-5.32,-0.02,-15.32,0.31,-5.93,0.0,0.0,0.0,-9.7,0.58,1.31
1738248578.965434,104455,0,0,,0.0,-0.6,0.23,0.73,0.23,-1.15,-5.23,-0.07,-14.99,-1.09,-5.7,0.0,0.0,0.0,-9.62,0.55,1.81
1738248578.980903,104456,0,0,,0.0,-0.56,0.21,0.76,0.24,-0.04,-4.98,-0.22,-14.24,-2.16,-6.23,0.0,0.0,0.0,-9.4,0.5,2.74
1738248578.9983957,104457,0,0,,0.0,-0.52,0.21,0.78,0.26,0.6,-4.79,-0.31,-13.75,-2.23,-6.29,0.0,0.0,0.0,-9.11,0.5,3.57
1738248579.01562,104458,0,0,,0.0,-0.51,0.21,0.79,0.27,1.64,-4.31,-0.37,-11.96,-0.19,-6.71,0.0,0.0,0.0,-8.96,0.53,3.94
1738248579.0306208,104459,0,0,,0.0,-0.47,0.21,0.81,0.29,1.95,-3.6,-0.15,-9.86,1.05,-7.33,0.0,0.0,0.0,-8.65,0.65,4.57
1738248579.0488765,104460,0,0,,0.0,-0.44,0.22,0.82,0.3,1.86,-3.14,0.08,-8.76,1.43,-7.84,0.0,0.0,0.0,-8.38,0.84,5.01
1738248579.0654614,104461,0,0,,0.0,-0.43,0.22,0.82,0.31,1.32,-1.84,0.28,-6.65,2.31,-10.12,0.0,0.0,0.0,-8.29,0.93,5.15
1738248579.0808043,104462,0,0,,0.0,-0.43,0.22,0.82,0.31,-0.12,-0.12,0.21,-8.09,1.7,-8.95,0.0,0.0,0.0,-8.22,0.99,5.23
1738248579.098383,104463,0,0,,0.0,-0.44,0.22,0.82,0.3,-0.77,0.64,0.19,-8.91,1.31,-8.26,0.0,0.0,0.0,-8.31,0.92,5.1
1738248579.1160884,104464,0,0,,0.0,-0.45,0.21,0.82,0.29,-1.38,1.59,0.17,-10.04,0.78,-7.43,0.0,0.0,0.0,-8.39,0.87,4.99
1738248579.131055,104465,0,0,,0.0,-0.47,0.21,0.81,0.28,-1.56,2.03,0.25,-10.56,0.28,-5.27,0.0,0.0,0.0,-8.57,0.76,4.69
1738248579.1487224,104466,0,0,,0.0,-0.49,0.2,0.81,0.27,-1.6,2.15,0.29,-12.35,0.19,2.37,0.0,0.0,0.0,-8.75,0.67,4.37
1738248579.1658216,104467,0,0,,0.0,-0.49,0.2,0.81,0.26,-0.68,0.63,0.26,-16.66,-0.84,8.73,0.0,0.0,0.0,-8.77,0.67,4.32
1738248579.1814435,104468,0,0,,0.0,-0.49,0.2,0.81,0.26,-0.69,-0.0,0.69,-2.85,-2.99,-12.42,0.0,0.0,0.0,-8.76,0.7,4.35
1738248579.1985478,104469,0,0,,0.0,-0.5,0.2,0.81,0.25,-0.76,0.59,0.62,-9.76,-1.62,1.79,0.0,0.0,0.0,-8.83,0.73,4.19
1738248579.216059,104470,0,0,,0.0,-0.5,0.2,0.81,0.24,-0.57,1.46,0.32,-14.06,-2.5,2.92,0.0,0.0,0.0,-8.88,0.73,4.07
1738248579.2308388,104471,0,0,,0.0,-0.52,0.19,0.8,0.23,-1.05,1.37,0.5,-9.0,1.41,2.04,0.0,0.0,0.0,-8.98,0.75,3.85
1738248579.2485852,104472,0,0,,0.0,-0.53,0.19,0.8,0.22,-1.03,1.28,0.41,-8.92,3.5,1.81,0.0,0.0,0.0,-9.07,0.76,3.64
1738248579.2662156,104473,0,0,,0.0,-0.53,0.19,0.8,0.21,-0.66,1.16,0.51,-9.0,2.47,2.61,0.0,0.0,0.0,-9.1,0.78,3.55
1738248579.2806535,104474,0,0,,0.0,-0.54,0.19,0.79,0.2,-0.36,1.19,0.57,-8.88,1.74,1.31,0.0,0.0,0.0,-9.17,0.85,3.34
1738248579.2988877,104475,0,0,,0.0,-0.55,0.2,0.79,0.2,-0.18,1.08,0.48,-10.17,0.07,0.78,0.0,0.0,0.0,-9.23,0.93,3.16
1738248579.3164651,104476,0,0,,0.0,-0.55,0.2,0.79,0.19,0.32,0.98,0.38,-10.7,-1.75,2.15,0.0,0.0,0.0,-9.26,0.97,3.06
1738248579.331907,104477,0,0,,0.0,-0.56,0.21,0.78,0.19,0.9,0.93,0.35,-10.32,0.75,1.85,0.0,0.0,0.0,-9.3,1.08,2.88
1738248579.3486395,104478,0,0,,0.0,-0.56,0.22,0.77,0.19,0.84,0.96,0.32,-10.33,1.58,2.38,0.0,0.0,0.0,-9.35,1.17,2.69
1738248579.366682,104479,0,0,,0.0,-0.56,0.22,0.77,0.19,0.32,0.97,0.31,-9.72,1.89,2.1,0.0,0.0,0.0,-9.37,1.21,2.6
1738248579.3819597,104480,0,0,,0.0,-0.57,0.22,0.77,0.19,-0.13,0.99,0.28,-9.32,2.08,1.42,0.0,0.0,0.0,-9.41,1.26,2.42
1738248579.399547,104481,0,0,,0.0,-0.58,0.23,0.76,0.18,-0.18,0.99,0.25,-9.18,1.81,1.45,0.0,0.0,0.0,-9.45,1.29,2.24
1738248579.4165578,104482,0,0,,0.0,-0.58,0.23,0.76,0.18,0.11,0.99,0.17,-9.21,0.75,1.71,0.0,0.0,0.0,-9.47,1.31,2.15
1738248579.4373965,104483,0,0,,0.0,-0.59,0.24,0.75,0.18,0.55,1.05,0.11,-9.57,0.76,2.15,0.0,0.0,0.0,-9.51,1.35,1.95
1738248579.4581294,104484,0,0,,0.0,-0.6,0.24,0.74,0.18,0.78,1.07,0.05,-9.53,1.33,1.34,0.0,0.0,0.0,-9.54,1.39,1.74
1738248579.4743583,104485,0,0,,0.0,-0.6,0.25,0.74,0.18,0.7,1.11,0.05,-10.14,0.84,1.13,0.0,0.0,0.0,-9.58,1.42,1.51
1738248579.4899564,104486,0,0,,0.0,-0.61,0.26,0.73,0.19,0.72,1.1,0.03,-9.78,0.88,-0.09,0.0,0.0,0.0,-9.61,1.45,1.29
1738248579.5089633,104487,0,0,,0.0,-0.61,0.26,0.72,0.19,0.74,1.06,0.02,-10.05,1.14,0.41,0.0,0.0,0.0,-9.63,1.47,1.07
1738248579.523825,104488,0,0,,0.0,-0.62,0.27,0.72,0.19,0.7,0.99,0.01,-9.68,1.38,-0.21,0.0,0.0,0.0,-9.64,1.47,0.97
1738248579.5397673,104489,0,0,,0.0,-0.62,0.27,0.71,0.19,0.64,0.97,0.01,-9.78,1.56,0.23,0.0,0.0,0.0,-9.66,1.48,0.77
1738248579.5588102,104490,0,0,,0.0,-0.63,0.28,0.7,0.19,0.53,0.92,0.02,-9.35,1.53,-0.29,0.0,0.0,0.0,-9.67,1.5,0.59
1738248579.5732892,104491,0,0,,0.0,-0.63,0.28,0.7,0.19,0.33,0.97,0.03,-9.51,1.56,0.25,0.0,0.0,0.0,-9.67,1.5,0.49
1738248579.5891495,104492,0,0,,0.0,-0.64,0.28,0.69,0.19,0.25,0.99,0.03,-9.48,1.51,0.0,0.0,0.0,0.0,-9.68,1.51,0.3
1738248579.608897,104493,0,0,,0.0,-0.64,0.29,0.69,0.18,0.12,1.04,0.04,-9.73,1.34,0.39,0.0,0.0,0.0,-9.68,1.52,0.1
1738248579.6234872,104494,0,0,,0.0,-0.65,0.29,0.68,0.18,0.13,1.05,0.02,-9.69,1.18,-0.68,0.0,0.0,0.0,-9.68,1.52,0.0
1738248579.639425,104495,0,0,,0.0,-0.65,0.29,0.68,0.18,0.19,1.09,0.02,-9.65,1.35,-0.63,0.0,0.0,0.0,-9.68,1.52,-0.21
1738248579.6589558,104496,0,0,,0.0,-0.66,0.3,0.67,0.18,0.33,1.14,-0.02,-9.48,1.24,-0.71,0.0,0.0,0.0,-9.67,1.51,-0.43
1738248579.6739862,104497,0,0,,0.0,-0.66,0.3,0.66,0.18,0.43,1.24,-0.04,-9.81,1.32,-0.15,0.0,0.0,0.0,-9.67,1.51,-0.56
1738248579.6901596,104498,0,0,,0.0,-0.67,0.3,0.65,0.18,0.44,1.27,-0.05,-9.89,1.43,-1.01,0.0,0.0,0.0,-9.65,1.49,-0.81
1738248579.7092156,104499,0,0,,0.0,-0.68,0.31,0.64,0.18,0.39,1.42,-0.08,-10.29,1.31,-0.57,0.0,0.0,0.0,-9.63,1.47,-1.1
1738248579.7235236,104500,0,0,,0.0,-0.68,0.31,0.64,0.18,0.36,1.53,-0.12,-10.78,1.0,-1.41,0.0,0.0,0.0,-9.61,1.45,-1.24
1738248579.7396157,104501,0,0,,0.0,-0.69,0.31,0.62,0.18,0.35,1.58,-0.14,-11.06,0.47,-1.35,0.0,0.0,0.0,-9.57,1.41,-1.55
1738248579.759306,104502,0,0,,0.0,-0.7,0.32,0.61,0.17,0.32,1.7,-0.19,-10.77,0.69,-2.28,0.0,0.0,0.0,-9.52,1.37,-1.88
1738248579.7736452,104503,0,0,,0.0,-0.71,0.32,0.6,0.17,0.22,1.86,-0.26,-11.18,0.73,-1.62,0.0,0.0,0.0,-9.49,1.34,-2.05
1738248579.7899392,104504,0,0,,0.0,-0.72,0.32,0.59,0.17,0.16,1.93,-0.3,-11.47,1.15,-1.58,0.0,0.0,0.0,-9.41,1.28,-2.42
1738248579.8093414,104505,0,0,,0.0,-0.74,0.32,0.57,0.17,0.11,2.11,-0.35,-11.89,0.78,-0.75,0.0,0.0,0.0,-9.31,1.2,-2.81
1738248579.8249002,104506,0,0,,0.0,-0.74,0.32,0.56,0.16,0.25,2.22,-0.42,-12.66,1.61,-2.69,0.0,0.0,0.0,-9.25,1.16,-3.02
1738248579.8397918,104507,0,0,,0.0,-0.76,0.32,0.55,0.16,0.26,2.37,-0.49,-14.56,-0.43,0.68,0.0,0.0,0.0,-9.11,1.05,-3.46
1738248579.8596418,104508,0,0,,0.0,-0.77,0.32,0.52,0.16,0.25,2.54,-0.56,-13.88,-0.68,0.34,0.0,0.0,0.0,-8.93,0.94,-3.92
1738248579.874449,104509,0,0,,0.0,-0.78,0.33,0.51,0.16,0.54,2.83,-0.44,-13.94,-2.58,1.97,0.0,0.0,0.0,-8.83,0.88,-4.16
1738248579.8901508,104510,0,0,,0.0,-0.79,0.33,0.49,0.16,0.66,2.94,-0.45,-13.99,-1.2,3.85,0.0,0.0,0.0,-8.58,0.74,-4.67
1738248579.9099786,104511,0,0,,0.0,-0.81,0.34,0.46,0.15,0.9,3.01,-0.29,-14.42,-0.76,4.12,0.0,0.0,0.0,-8.3,0.62,-5.18
1738248579.9240024,104512,0,0,,0.0,-0.81,0.34,0.45,0.15,0.83,3.2,-0.12,-15.97,4.68,-4.4,0.0,0.0,0.0,-8.13,0.57,-5.44
1738248579.9404042,104513,0,0,,0.0,-0.83,0.35,0.42,0.14,0.75,3.57,-0.19,-17.4,3.68,-3.88,0.0,0.0,0.0,-7.73,0.48,-6.0
1738248579.959503,104514,0,0,,0.0,-0.84,0.35,0.39,0.13,-0.27,3.56,-0.22,-15.29,2.86,-4.17,0.0,0.0,0.0,-7.31,0.5,-6.5
1738248579.974202,104515,0,0,,0.0,-0.85,0.35,0.38,0.12,-0.31,3.16,-0.1,-11.86,2.3,-0.89,0.0,0.0,0.0,-7.11,0.51,-6.72
1738248579.9907832,104516,0,0,,0.0,-0.86,0.35,0.36,0.11,-0.33,2.8,-0.05,-10.81,1.4,2.08,0.0,0.0,0.0,-6.77,0.56,-7.06
1738248580.0099728,104517,0,0,,0.0,-0.86,0.35,0.35,0.1,-0.46,1.77,0.11,-10.15,0.65,2.07,0.0,0.0,0.0,-6.56,0.63,-7.25
1738248580.0243795,104518,0,0,,0.0,-0.86,0.35,0.34,0.1,-0.24,0.78,0.11,-8.2,0.78,-0.02,0.0,0.0,0.0,-6.51,0.65,-7.3
1738248580.0403574,104519,0,0,,0.0,-0.86,0.35,0.34,0.1,-0.17,0.32,0.12,-6.83,1.22,-0.22,0.0,0.0,0.0,-6.49,0.68,-7.31
1738248580.0596762,104520,0,0,,0.0,-0.86,0.36,0.35,0.1,0.21,-0.57,0.21,-6.65,1.31,-0.44,0.0,0.0,0.0,-6.6,0.67,-7.21
1738248580.0744526,104521,0,0,,0.0,-0.86,0.36,0.35,0.11,0.33,-1.46,0.27,-5.86,0.04,-0.93,0.0,0.0,0.0,-6.7,0.67,-7.12
1738248580.0903316,104522,0,0,,0.0,-0.85,0.36,0.37,0.12,0.45,-1.9,0.25,-5.47,0.24,-1.4,0.0,0.0,0.0,-6.98,0.63,-6.85
1738248580.109803,104523,0,0,,0.0,-0.84,0.36,0.39,0.13,0.57,-2.71,0.19,-5.52,0.23,-1.9,0.0,0.0,0.0,-7.35,0.59,-6.45
1738248580.124876,104524,0,0,,0.0,-0.83,0.36,0.4,0.14,0.47,-3.39,0.12,-5.83,0.26,-2.09,0.0,0.0,0.0,-7.56,0.57,-6.21
1738248580.1404195,104525,0,0,,0.0,-0.81,0.35,0.43,0.15,0.35,-3.7,0.08,-6.37,0.21,-2.62,0.0,0.0,0.0,-8.0,0.55,-5.64
1738248580.1597607,104526,0,0,,0.0,-0.8,0.35,0.47,0.17,-0.09,-4.25,0.01,-6.99,0.05,-2.75,0.0,0.0,0.0,-8.45,0.56,-4.93
1738248580.1745417,104527,0,0,,0.0,-0.78,0.34,0.49,0.17,-0.44,-4.75,-0.09,-8.02,0.15,-3.63,0.0,0.0,0.0,-8.67,0.57,-4.54
1738248580.1907878,104528,0,0,,0.0,-0.76,0.33,0.53,0.19,-0.58,-4.97,-0.12,-9.14,0.43,-4.23,0.0,0.0,0.0,-9.07,0.61,-3.66
1738248580.2096174,104529,0,0,,0.0,-0.74,0.31,0.57,0.19,-1.07,-5.3,-0.16,-10.7,0.72,-4.68,0.0,0.0,0.0,-9.4,0.65,-2.69
1738248580.2248058,104530,0,0,,0.0,-0.72,0.3,0.59,0.2,-1.58,-5.5,-0.25,-12.38,0.97,-5.16,0.0,0.0,0.0,-9.53,0.66,-2.17
1738248580.240731,104531,0,0,,0.0,-0.69,0.28,0.63,0.2,-1.74,-5.58,-0.28,-13.77,1.45,-6.55,0.0,0.0,0.0,-9.72,0.66,-1.11
1738248580.2602417,104532,0,0,,0.0,-0.66,0.25,0.67,0.21,-1.85,-5.59,-0.37,-14.36,0.91,-6.82,0.0,0.0,0.0,-9.78,0.61,-0.03
1738248580.274381,104533,0,0,,0.0,-0.65,0.24,0.69,0.21,-1.53,-5.44,-0.46,-15.61,0.28,-7.59,0.0,0.0,0.0,-9.77,0.56,0.48
1738248580.2905684,104534,0,0,,0.0,-0.61,0.22,0.73,0.22,-1.2,-5.33,-0.47,-14.87,0.75,-7.78,0.0,0.0,0.0,-9.68,0.46,1.48
1738248580.3096263,104535,0,0,,0.0,-0.58,0.2,0.75,0.23,-0.48,-4.99,-0.37,-14.34,0.9,-7.55,0.0,0.0,0.0,-9.5,0.38,2.39
1738248580.3247397,104536,0,0,,0.0,-0.56,0.2,0.77,0.24,0.02,-4.56,-0.22,-13.17,0.1,-7.13,0.0,0.0,0.0,-9.38,0.36,2.81
1738248580.340483,104537,0,0,,0.0,-0.53,0.19,0.79,0.25,0.32,-4.31,-0.16,-12.71,-0.36,-6.91,0.0,0.0,0.0,-9.13,0.37,3.55
1738248580.3599374,104538,0,0,,0.0,-0.5,0.19,0.8,0.26,0.89,-3.72,-0.07,-11.76,-0.24,-7.44,0.0,0.0,0.0,-8.86,0.43,4.16
1738248580.3747356,104539,0,0,,0.0,-0.49,0.19,0.81,0.26,1.06,-2.94,0.03,-10.56,-0.03,-7.65,0.0,0.0,0.0,-8.74,0.48,4.41
1738248580.3916276,104540,0,0,,0.0,-0.47,0.19,0.82,0.27,0.98,-2.46,0.07,-7.74,1.42,-9.08,0.0,0.0,0.0,-8.54,0.58,4.76
1738248580.4101562,104541,0,0,,0.0,-0.46,0.19,0.82,0.27,0.6,-1.25,0.16,-7.27,1.76,-9.4,0.0,0.0,0.0,-8.46,0.65,4.91
1738248580.4253082,104542,0,0,,0.0,-0.46,0.19,0.82,0.27,-0.2,0.14,0.19,-7.68,2.12,-9.48,0.0,0.0,0.0,-8.46,0.65,4.9
1738248580.4407806,104543,0,0,,0.0,-0.47,0.19,0.82,0.26,-0.66,0.8,0.19,-8.87,1.75,-8.15,0.0,0.0,0.0,-8.56,0.6,4.73
1738248580.4600155,104544,0,0,,0.0,-0.49,0.18,0.81,0.25,-1.3,1.74,0.2,-10.64,0.81,-3.51,0.0,0.0,0.0,-8.72,0.52,4.44
1738248580.4753847,104545,0,0,,0.0,-0.5,0.18,0.81,0.25,-1.18,1.54,0.23,-21.75,-3.2,34.54,0.0,0.0,0.0,-8.79,0.49,4.31
1738248580.4910598,104546,0,0,,0.0,-0.5,0.18,0.81,0.24,-0.65,0.32,0.16,-6.55,-5.16,-6.14,0.0,0.0,0.0,-8.79,0.48,4.3
1738248580.5106628,104547,0,0,,0.0,-0.5,0.18,0.81,0.24,-0.13,0.2,0.59,-4.47,-3.22,-8.89,0.0,0.0,0.0,-8.83,0.57,4.2
1738248580.5249274,104548,0,0,,0.0,-0.51,0.19,0.81,0.24,0.18,1.31,0.29,-12.78,-0.1,4.03,0.0,0.0,0.0,-8.88,0.6,4.09
1738248580.5404325,104549,0,0,,0.0,-0.52,0.19,0.8,0.23,-0.29,1.35,0.36,-10.19,1.47,0.66,0.0,0.0,0.0,-8.98,0.62,3.86
1738248580.5600476,104550,0,0,,0.0,-0.53,0.18,0.8,0.22,-1.33,1.29,0.42,-9.77,0.91,2.05,0.0,0.0,0.0,-9.07,0.6,3.66
1738248580.5746725,104551,0,0,,0.0,-0.53,0.18,0.8,0.21,-0.89,1.11,0.46,-9.29,2.35,3.18,0.0,0.0,0.0,-9.11,0.61,3.57
1738248580.5907788,104552,0,0,,0.0,-0.54,0.18,0.79,0.2,-0.49,1.11,0.52,-8.27,1.45,2.21,0.0,0.0,0.0,-9.17,0.68,3.38
1738248580.610306,104553,0,0,,0.0,-0.55,0.19,0.79,0.2,-0.02,1.06,0.55,-8.2,1.1,2.3,0.0,0.0,0.0,-9.23,0.78,3.2
1738248580.6243052,104554,0,0,,0.0,-0.55,0.19,0.79,0.2,0.36,0.93,0.42,-10.1,0.49,0.89,0.0,0.0,0.0,-9.26,0.82,3.11
1738248580.641278,104555,0,0,,0.0,-0.56,0.2,0.78,0.19,0.41,0.92,0.41,-10.85,-0.93,0.67,0.0,0.0,0.0,-9.3,0.92,2.94
1738248580.659967,104556,0,0,,0.0,-0.56,0.21,0.78,0.19,0.54,0.88,0.37,-10.62,-0.28,0.44,0.0,0.0,0.0,-9.35,1.01,2.77
1738248580.674439,104557,0,0,,0.0,-0.56,0.21,0.78,0.19,0.25,0.84,0.32,-10.19,1.67,0.89,0.0,0.0,0.0,-9.36,1.05,2.69
1738248580.6912398,104558,0,0,,0.0,-0.57,0.21,0.77,0.19,-0.0,0.81,0.34,-9.86,1.54,1.7,0.0,0.0,0.0,-9.4,1.11,2.55
1738248580.7099893,104559,0,0,,0.0,-0.58,0.21,0.77,0.18,-0.22,0.76,0.3,-9.46,1.56,1.15,0.0,0.0,0.0,-9.43,1.15,2.41
1738248580.724511,104560,0,0,,0.0,-0.58,0.21,0.77,0.18,-0.1,0.79,0.24,-9.6,0.73,1.91,0.0,0.0,0.0,-9.44,1.17,2.34
1738248580.7405584,104561,0,0,,0.0,-0.58,0.22,0.76,0.18,0.09,0.78,0.21,-8.89,0.8,1.74,0.0,0.0,0.0,-9.47,1.21,2.2
1738248580.7597375,104562,0,0,,0.0,-0.59,0.22,0.76,0.18,0.45,0.83,0.17,-9.0,1.1,2.16,0.0,0.0,0.0,-9.5,1.26,2.03
1738248580.7746983,104563,0,0,,0.0,-0.59,0.23,0.75,0.18,0.58,0.9,0.14,-9.14,1.45,1.67,0.0,0.0,0.0,-9.52,1.29,1.94
1738248580.7905214,104564,0,0,,0.0,-0.6,0.23,0.75,0.18,0.55,0.94,0.14,-9.59,1.17,1.57,0.0,0.0,0.0,-9.55,1.33,1.75
1738248580.8100126,104565,0,0,,0.0,-0.6,0.24,0.74,0.18,0.51,0.99,0.12,-9.76,1.09,0.52,0.0,0.0,0.0,-9.58,1.37,1.55
1738248580.8246186,104566,0,0,,0.0,-0.61,0.24,0.74,0.18,0.47,0.99,0.1,-9.88,0.89,0.65,0.0,0.0,0.0,-9.59,1.39,1.45
1738248580.8405478,104567,0,0,,0.0,-0.61,0.25,0.73,0.18,0.46,0.98,0.1,-9.6,1.32,0.1,0.0,0.0,0.0,-9.62,1.42,1.26
1738248580.8600538,104568,0,0,,0.0,-0.62,0.25,0.72,0.18,0.36,0.99,0.11,-9.65,1.25,0.61,0.0,0.0,0.0,-9.64,1.44,1.06
1738248580.874315,104569,0,0,,0.0,-0.62,0.25,0.72,0.17,0.21,0.97,0.1,-9.44,1.36,-0.01,0.0,0.0,0.0,-9.64,1.45,0.97
1738248580.8904057,104570,0,0,,0.0,-0.63,0.26,0.71,0.17,0.13,0.97,0.12,-9.8,1.0,1.04,0.0,0.0,0.0,-9.66,1.48,0.78
1738248580.909707,104571,0,0,,0.0,-0.63,0.26,0.71,0.17,0.11,1.01,0.11,-9.51,1.44,0.19,0.0,0.0,0.0,-9.67,1.5,0.59
1738248580.9248748,104572,0,0,,0.0,-0.64,0.26,0.7,0.17,0.06,1.09,0.1,-9.83,1.16,0.68,0.0,0.0,0.0,-9.67,1.51,0.48
1738248580.9403853,104573,0,0,,0.0,-0.64,0.26,0.7,0.17,0.12,1.1,0.09,-9.45,1.08,-0.59,0.0,0.0,0.0,-9.68,1.52,0.27
1738248580.9598029,104574,0,0,,0.0,-0.65,0.27,0.69,0.16,0.31,1.14,0.07,-9.68,0.88,0.38,0.0,0.0,0.0,-9.68,1.53,0.05
1738248580.9737823,104575,0,0,,0.0,-0.66,0.27,0.69,0.16,0.47,1.17,0.03,-9.23,1.43,-0.66,0.0,0.0,0.0,-9.68,1.54,-0.06
1738248580.9903846,104576,0,0,,0.0,-0.66,0.28,0.68,0.16,0.5,1.24,0.03,-9.6,1.47,-0.39,0.0,0.0,0.0,-9.67,1.54,-0.31
1738248581.0098457,104577,0,0,,0.0,-0.67,0.28,0.67,0.16,0.45,1.29,0.0,-9.51,1.65,-0.78,0.0,0.0,0.0,-9.66,1.54,-0.57
1738248581.0240493,104578,0,0,,0.0,-0.67,0.28,0.66,0.16,0.34,1.38,-0.02,-10.04,1.52,-0.86,0.0,0.0,0.0,-9.65,1.53,-0.7
1738248581.040194,104579,0,0,,0.0,-0.68,0.29,0.65,0.16,0.3,1.39,-0.04,-10.06,1.62,-1.28,0.0,0.0,0.0,-9.63,1.52,-0.97
1738248581.0584812,104580,0,0,,0.0,-0.69,0.29,0.64,0.16,0.27,1.42,-0.07,-10.56,1.13,-1.37,0.0,0.0,0.0,-9.62,1.51,-1.11
1738248581.0732238,104581,0,0,,0.0,-0.7,0.29,0.64,0.16,0.3,1.46,-0.1,-10.96,1.25,-1.8,0.0,0.0,0.0,-9.59,1.48,-1.39
1738248581.0901346,104582,0,0,,0.0,-0.71,0.3,0.62,0.16,0.32,1.5,-0.11,-11.3,0.49,-1.45,0.0,0.0,0.0,-9.55,1.45,-1.68
1738248581.1091628,104583,0,0,,0.0,-0.72,0.3,0.61,0.16,0.37,1.57,-0.15,-11.01,0.65,-2.18,0.0,0.0,0.0,-9.52,1.43,-1.83
1738248581.1236725,104584,0,0,,0.0,-0.72,0.3,0.61,0.15,0.33,1.71,-0.21,-11.19,0.62,-1.44,0.0,0.0,0.0,-9.46,1.38,-2.14
1738248581.140597,104585,0,0,,0.0,-0.73,0.3,0.59,0.15,0.29,1.76,-0.23,-10.93,1.27,-1.82,0.0,0.0,0.0,-9.39,1.33,-2.48
1738248581.1586885,104586,0,0,,0.0,-0.74,0.31,0.58,0.15,0.21,1.91,-0.27,-11.9,0.24,-0.32,0.0,0.0,0.0,-9.34,1.3,-2.65
1738248581.1736186,104587,0,0,,0.0,-0.75,0.31,0.57,0.15,0.26,2.0,-0.39,-12.54,2.47,-3.36,0.0,0.0,0.0,-9.24,1.22,-3.02
1738248581.1899898,104588,0,0,,0.0,-0.76,0.31,0.55,0.15,0.15,2.18,-0.43,-13.69,1.57,-1.55,0.0,0.0,0.0,-9.12,1.13,-3.41
1738248581.2095847,104589,0,0,,0.0,-0.77,0.31,0.53,0.14,0.32,2.23,-0.44,-10.62,0.53,-1.92,0.0,0.0,0.0,-9.05,1.08,-3.61
1738248581.2237182,104590,0,0,,0.0,-0.78,0.31,0.52,0.14,0.54,2.61,-0.44,-13.12,-0.96,1.37,0.0,0.0,0.0,-8.87,0.97,-4.06
1738248581.2401943,104591,0,0,,0.0,-0.79,0.32,0.5,0.14,0.71,2.67,-0.45,-12.66,0.01,0.81,0.0,0.0,0.0,-8.65,0.84,-4.54
1738248581.2589438,104592,0,0,,0.0,-0.81,0.32,0.47,0.14,0.96,2.9,-0.23,-13.44,-0.06,2.85,0.0,0.0,0.0,-8.52,0.78,-4.78
1738248581.2740476,104593,0,0,,0.0,-0.81,0.33,0.46,0.14,0.97,3.0,0.11,-13.66,2.74,-0.32,0.0,0.0,0.0,-8.23,0.68,-5.28
1738248581.2901185,104594,0,0,,0.0,-0.83,0.34,0.43,0.14,0.84,3.24,0.19,-14.62,2.41,-2.33,0.0,0.0,0.0,-7.87,0.63,-5.81
1738248581.3094616,104595,0,0,,0.0,-0.84,0.34,0.4,0.13,0.56,3.5,0.03,-15.76,1.98,-3.42,0.0,0.0,0.0,-7.67,0.6,-6.07
1738248581.3241677,104596,0,0,,0.0,-0.84,0.35,0.39,0.13,0.49,3.14,0.1,-13.35,1.5,-2.87,0.0,0.0,0.0,-7.27,0.55,-6.55
1738248581.3402843,104597,0,0,,0.0,-0.85,0.35,0.36,0.12,0.6,2.86,0.14,-11.71,1.88,-0.45,0.0,0.0,0.0,-6.92,0.49,-6.92
1738248581.3593256,104598,0,0,,0.0,-0.86,0.36,0.35,0.12,0.28,2.0,0.28,-11.13,3.24,0.79,0.0,0.0,0.0,-6.78,0.49,-7.06
1738248581.3740022,104599,0,0,,0.0,-0.86,0.36,0.35,0.11,-0.15,0.98,0.3,-9.15,0.92,0.97,0.0,0.0,0.0,-6.61,0.54,-7.22
1738248581.3903513,104600,0,0,,0.0,-0.86,0.36,0.34,0.11,-0.27,0.53,0.27,-8.37,1.0,0.38,0.0,0.0,0.0,-6.56,0.62,-7.25
1738248581.4091434,104601,0,0,,0.0,-0.86,0.36,0.35,0.11,-0.35,-0.35,0.31,-7.17,0.62,-0.32,0.0,0.0,0.0,-6.58,0.66,-7.23
1738248581.4243946,104602,0,0,,0.0,-0.85,0.36,0.36,0.11,-0.22,-1.25,0.39,-7.29,-0.17,-0.89,0.0,0.0,0.0,-6.72,0.75,-7.09
1738248581.44057,104603,0,0,,0.0,-0.85,0.36,0.37,0.11,-0.02,-1.68,0.36,-6.95,-1.42,-1.52,0.0,0.0,0.0,-6.97,0.78,-6.84
1738248581.4592502,104604,0,0,,0.0,-0.84,0.36,0.39,0.13,0.45,-2.47,0.2,-6.55,-0.8,-1.79,0.0,0.0,0.0,-7.13,0.77,-6.68
1738248581.4740963,104605,0,0,,0.0,-0.83,0.36,0.4,0.13,0.58,-3.19,0.08,-6.58,-0.1,-2.45,0.0,0.0,0.0,-7.51,0.71,-6.26
1738248581.4904392,104606,0,0,,0.0,-0.81,0.36,0.43,0.15,0.53,-3.52,0.03,-6.76,0.19,-2.51,0.0,0.0,0.0,-7.93,0.66,-5.72
1738248581.5093,104607,0,0,,0.0,-0.8,0.35,0.46,0.17,0.19,-4.08,-0.03,-7.24,0.49,-3.12,0.0,0.0,0.0,-8.15,0.64,-5.4
1738248581.5247228,104608,0,0,,0.0,-0.79,0.35,0.48,0.17,-0.33,-4.59,-0.07,-8.07,0.41,-3.4,0.0,0.0,0.0,-8.59,0.65,-4.67
1738248581.540746,104609,0,0,,0.0,-0.76,0.34,0.52,0.18,-0.53,-4.82,-0.09,-8.26,0.35,-3.52,0.0,0.0,0.0,-9.0,0.69,-3.83
1738248581.5589244,104610,0,0,,0.0,-0.75,0.33,0.54,0.19,-0.9,-5.18,-0.09,-9.46,0.66,-4.14,0.0,0.0,0.0,-9.18,0.71,-3.37
1738248581.5740366,104611,0,0,,0.0,-0.72,0.31,0.58,0.2,-1.42,-5.42,-0.08,-11.69,1.24,-4.28,0.0,0.0,0.0,-9.48,0.77,-2.38
1738248581.5909889,104612,0,0,,0.0,-0.69,0.29,0.63,0.2,-1.66,-5.52,-0.08,-12.39,1.27,-4.39,0.0,0.0,0.0,-9.68,0.82,-1.32
1738248581.609785,104613,0,0,,0.0,-0.66,0.27,0.67,0.21,-1.93,-5.67,-0.1,-13.37,1.51,-5.24,0.0,0.0,0.0,-9.74,0.83,-0.77
1738248581.6246934,104614,0,0,,0.0,-0.65,0.25,0.69,0.21,-1.84,-5.7,-0.15,-14.85,0.54,-5.98,0.0,0.0,0.0,-9.76,0.81,0.33
1738248581.6411893,104615,0,0,,0.0,-0.61,0.23,0.73,0.21,-1.61,-5.65,-0.19,-15.26,0.28,-6.41,0.0,0.0,0.0,-9.67,0.74,1.41
1738248581.659008,104616,0,0,,0.0,-0.58,0.22,0.76,0.22,-0.81,-5.41,-0.21,-15.55,-0.39,-6.95,0.0,0.0,0.0,-9.58,0.71,1.92
1738248581.67482,104617,0,0,,0.0,-0.56,0.21,0.77,0.23,0.16,-5.05,-0.22,-15.22,-1.04,-6.91,0.0,0.0,0.0,-9.35,0.67,2.86
1738248581.6909633,104618,0,0,,0.0,-0.52,0.21,0.79,0.25,0.69,-4.81,-0.23,-14.29,-1.25,-7.75,0.0,0.0,0.0,-9.06,0.69,3.68
1738248581.7099698,104619,0,0,,0.0,-0.49,0.21,0.81,0.26,1.44,-4.12,-0.19,-12.43,-0.75,-8.46,0.0,0.0,0.0,-8.9,0.72,4.03
1738248581.7245789,104620,0,0,,0.0,-0.47,0.21,0.81,0.27,1.35,-3.13,-0.03,-8.65,1.13,-9.92,0.0,0.0,0.0,-8.62,0.83,4.58
1738248581.7410069,104621,0,0,,0.0,-0.45,0.21,0.82,0.28,1.08,-2.49,0.08,-7.56,1.65,-10.27,0.0,0.0,0.0,-8.42,0.94,4.92
1738248581.7592056,104622,0,0,,0.0,-0.45,0.21,0.82,0.28,0.34,-0.99,0.16,-6.85,2.88,-11.62,0.0,0.0,0.0,-8.37,0.96,5.0
1738248581.774887,104623,0,0,,0.0,-0.45,0.21,0.82,0.27,-0.79,0.54,0.1,-7.63,2.32,-11.16,0.0,0.0,0.0,-8.39,0.93,4.98
1738248581.7907503,104624,0,0,,0.0,-0.46,0.2,0.82,0.26,-1.13,1.15,0.09,-9.14,2.14,-9.6,0.0,0.0,0.0,-8.52,0.84,4.77
1738248581.809767,104625,0,0,,0.0,-0.48,0.2,0.82,0.25,-1.23,1.88,0.18,-11.73,1.18,-1.82,0.0,0.0,0.0,-8.6,0.8,4.63
1738248581.824983,104626,0,0,,0.0,-0.48,0.2,0.82,0.25,-0.04,0.1,0.17,-18.95,-0.74,9.02,0.0,0.0,0.0,-8.67,0.79,4.51
1738248581.841235,104627,0,0,,0.0,-0.48,0.2,0.82,0.25,-0.15,-0.12,0.42,-9.77,-2.19,-3.82,0.0,0.0,0.0,-8.67,0.87,4.49
1738248581.8585253,104628,0,0,,0.0,-0.48,0.2,0.82,0.25,-0.02,1.03,0.4,-10.31,0.93,2.45,0.0,0.0,0.0,-8.71,0.9,4.4
1738248581.8747902,104629,0,0,,0.0,-0.49,0.2,0.81,0.24,-0.48,1.34,0.34,-12.91,-1.37,1.86,0.0,0.0,0.0,-8.81,0.93,4.18
1738248581.8905563,104630,0,0,,0.0,-0.51,0.2,0.81,0.23,-0.92,1.38,0.44,-11.2,0.82,-0.39,0.0,0.0,0.0,-8.91,0.91,3.97
1738248581.9089832,104631,0,0,,0.0,-0.51,0.2,0.81,0.22,-1.35,1.23,0.39,-9.06,2.35,0.7,0.0,0.0,0.0,-8.96,0.9,3.87
1738248581.9246643,104632,0,0,,0.0,-0.52,0.2,0.8,0.21,-0.79,1.22,0.47,-9.17,0.85,2.84,0.0,0.0,0.0,-9.04,0.91,3.68
1738248581.9416058,104633,0,0,,0.0,-0.53,0.2,0.8,0.2,-0.31,1.23,0.53,-8.46,1.45,1.47,0.0,0.0,0.0,-9.11,0.98,3.47
1738248581.958334,104634,0,0,,0.0,-0.54,0.2,0.79,0.2,0.38,1.06,0.41,-8.51,1.71,2.64,0.0,0.0,0.0,-9.14,1.03,3.37
1738248581.9744947,104635,0,0,,0.0,-0.54,0.21,0.79,0.2,0.7,0.99,0.39,-10.23,0.32,1.71,0.0,0.0,0.0,-9.2,1.14,3.18
1738248581.9906178,104636,0,0,,0.0,-0.55,0.22,0.78,0.2,0.72,0.99,0.36,-10.48,-0.25,2.69,0.0,0.0,0.0,-9.25,1.25,2.99
1738248582.0085256,104637,0,0,,0.0,-0.55,0.23,0.78,0.2,0.5,0.99,0.31,-10.08,1.55,1.62,0.0,0.0,0.0,-9.27,1.29,2.9
1738248582.0250933,104638,0,0,,0.0,-0.56,0.23,0.77,0.2,-0.02,0.99,0.3,-10.3,1.63,1.19,0.0,0.0,0.0,-9.32,1.35,2.71
1738248582.040939,104639,0,0,,0.0,-0.56,0.23,0.77,0.19,-0.24,0.98,0.3,-10.04,1.21,1.1,0.0,0.0,0.0,-9.36,1.39,2.54
1738248582.058967,104640,0,0,,0.0,-0.57,0.23,0.77,0.19,-0.26,0.95,0.23,-9.77,1.42,1.42,0.0,0.0,0.0,-9.38,1.4,2.46
1738248582.0747514,104641,0,0,,0.0,-0.57,0.23,0.76,0.18,0.1,0.96,0.16,-9.54,0.53,2.24,0.0,0.0,0.0,-9.42,1.44,2.29
1738248582.091095,104642,0,0,,0.0,-0.58,0.24,0.76,0.18,0.37,0.95,0.11,-9.37,0.91,2.63,0.0,0.0,0.0,-9.46,1.47,2.1
1738248582.1097708,104643,0,0,,0.0,-0.59,0.25,0.75,0.18,0.63,1.04,0.04,-9.04,1.56,2.51,0.0,0.0,0.0,-9.48,1.49,1.99
1738248582.1251392,104644,0,0,,0.0,-0.59,0.25,0.75,0.18,0.63,1.11,-0.0,-9.03,1.78,1.83,0.0,0.0,0.0,-9.52,1.51,1.77
1738248582.1415534,104645,0,0,,0.0,-0.6,0.26,0.74,0.19,0.6,1.15,-0.01,-9.57,1.38,1.32,0.0,0.0,0.0,-9.56,1.53,1.54
1738248582.158765,104646,0,0,,0.0,-0.6,0.26,0.73,0.19,0.63,1.16,-0.03,-9.77,1.31,0.88,0.0,0.0,0.0,-9.57,1.54,1.43
1738248582.175278,104647,0,0,,0.0,-0.61,0.27,0.73,0.19,0.62,1.13,-0.02,-9.83,1.2,0.38,0.0,0.0,0.0,-9.6,1.55,1.2
1738248582.191371,104648,0,0,,0.0,-0.61,0.27,0.72,0.19,0.6,1.11,-0.02,-9.86,1.32,0.46,0.0,0.0,0.0,-9.63,1.56,0.98
1738248582.209411,104649,0,0,,0.0,-0.62,0.28,0.71,0.19,0.49,1.06,-0.02,-9.77,1.21,0.45,0.0,0.0,0.0,-9.64,1.56,0.87
1738248582.225317,104650,0,0,,0.0,-0.62,0.28,0.71,0.19,0.4,1.01,-0.01,-9.75,1.44,0.02,0.0,0.0,0.0,-9.65,1.56,0.66
1738248582.241224,104651,0,0,,0.0,-0.63,0.28,0.7,0.19,0.32,1.01,0.0,-9.81,1.45,0.07,0.0,0.0,0.0,-9.66,1.57,0.46
1738248582.2590435,104652,0,0,,0.0,-0.63,0.28,0.7,0.19,0.2,1.04,-0.01,-9.61,1.56,-0.27,0.0,0.0,0.0,-9.67,1.57,0.36
1738248582.2753863,104653,0,0,,0.0,-0.64,0.29,0.69,0.18,0.13,1.05,-0.01,-9.92,1.37,0.14,0.0,0.0,0.0,-9.67,1.57,0.16
1738248582.291001,104654,0,0,,0.0,-0.65,0.29,0.68,0.18,0.15,1.04,-0.02,-9.77,1.34,-0.43,0.0,0.0,0.0,-9.68,1.56,-0.03
1738248582.3097262,104655,0,0,,0.0,-0.65,0.29,0.67,0.18,0.2,1.07,-0.02,-9.65,1.26,-0.66,0.0,0.0,0.0,-9.68,1.56,-0.13
1738248582.3253639,104656,0,0,,0.0,-0.66,0.29,0.67,0.18,0.26,1.14,-0.05,-9.55,1.49,-0.88,0.0,0.0,0.0,-9.67,1.55,-0.35
1738248582.3417785,104657,0,0,,0.0,-0.66,0.3,0.66,0.18,0.28,1.2,-0.06,-9.93,1.4,-0.66,0.0,0.0,0.0,-9.66,1.53,-0.59
1738248582.3590467,104658,0,0,,0.0,-0.67,0.3,0.65,0.18,0.32,1.27,-0.1,-9.77,1.34,-0.99,0.0,0.0,0.0,-9.66,1.52,-0.71
1738248582.3756838,104659,0,0,,0.0,-0.68,0.3,0.65,0.18,0.42,1.4,-0.14,-10.26,1.19,-0.86,0.0,0.0,0.0,-9.64,1.49,-0.98
1738248582.3913074,104660,0,0,,0.0,-0.69,0.31,0.64,0.18,0.46,1.43,-0.16,-10.73,1.02,-1.19,0.0,0.0,0.0,-9.61,1.45,-1.27
1738248582.4095862,104661,0,0,,0.0,-0.69,0.31,0.62,0.18,0.49,1.54,-0.19,-10.66,1.01,-1.6,0.0,0.0,0.0,-9.59,1.42,-1.42
1738248582.4262385,104662,0,0,,0.0,-0.7,0.31,0.62,0.18,0.4,1.64,-0.25,-10.54,0.82,-2.19,0.0,0.0,0.0,-9.55,1.37,-1.73
1738248582.4413047,104663,0,0,,0.0,-0.71,0.32,0.6,0.18,0.32,1.72,-0.28,-11.05,0.53,-1.48,0.0,0.0,0.0,-9.49,1.3,-2.07
1738248582.4597297,104664,0,0,,0.0,-0.72,0.32,0.59,0.17,0.22,1.88,-0.39,-11.39,1.13,-1.59,0.0,0.0,0.0,-9.46,1.26,-2.24
1738248582.4756508,104665,0,0,,0.0,-0.73,0.32,0.58,0.17,0.28,1.99,-0.48,-12.45,0.17,-1.09,0.0,0.0,0.0,-9.37,1.17,-2.61
1738248582.4911585,104666,0,0,,0.0,-0.74,0.32,0.56,0.17,0.29,2.11,-0.59,-14.47,0.54,-0.01,0.0,0.0,0.0,-9.27,1.04,-3.0
1738248582.5098546,104667,0,0,,0.0,-0.76,0.32,0.54,0.17,0.2,2.27,-0.66,-14.31,-0.6,0.67,0.0,0.0,0.0,-9.21,0.98,-3.21
1738248582.5261319,104668,0,0,,0.0,-0.76,0.32,0.53,0.17,0.35,2.56,-0.64,-13.53,-1.62,0.75,0.0,0.0,0.0,-9.06,0.84,-3.65
1738248582.5417655,104669,0,0,,0.0,-0.78,0.32,0.51,0.17,0.4,2.7,-0.7,-13.86,-0.73,2.05,0.0,0.0,0.0,-8.86,0.69,-4.13
1738248582.5600579,104670,0,0,,0.0,-0.79,0.33,0.49,0.16,0.57,2.91,-0.62,-13.63,-0.03,2.71,0.0,0.0,0.0,-8.74,0.61,-4.39
1738248582.5762143,104671,0,0,,0.0,-0.8,0.33,0.47,0.16,0.52,3.11,-0.45,-13.72,0.4,3.29,0.0,0.0,0.0,-8.47,0.48,-4.9
1738248582.591926,104672,0,0,,0.0,-0.82,0.33,0.45,0.16,0.56,3.13,-0.36,-13.83,5.14,-1.54,0.0,0.0,0.0,-8.16,0.36,-5.42
1738248582.6104872,104673,0,0,,0.0,-0.83,0.34,0.42,0.15,0.48,3.34,-0.27,-14.33,4.1,-3.75,0.0,0.0,0.0,-7.98,0.32,-5.68
1738248582.6264665,104674,0,0,,0.0,-0.84,0.34,0.4,0.15,-0.08,3.15,-0.15,-13.02,2.12,-3.72,0.0,0.0,0.0,-7.61,0.29,-6.17
1738248582.642072,104675,0,0,,0.0,-0.85,0.34,0.38,0.14,-0.06,2.93,-0.05,-11.97,1.11,-1.27,0.0,0.0,0.0,-7.26,0.28,-6.57
1738248582.660366,104676,0,0,,0.0,-0.85,0.35,0.37,0.13,0.12,2.28,0.09,-11.69,1.08,0.47,0.0,0.0,0.0,-7.12,0.28,-6.73
1738248582.676217,104677,0,0,,0.0,-0.86,0.35,0.36,0.13,0.19,1.23,0.17,-9.47,1.27,1.68,0.0,0.0,0.0,-6.92,0.28,-6.93
1738248582.6920857,104678,0,0,,0.0,-0.86,0.35,0.35,0.13,0.08,0.79,0.15,-7.35,2.07,0.05,0.0,0.0,0.0,-6.84,0.29,-7.01
1738248582.7100616,104679,0,0,,0.0,-0.86,0.35,0.36,0.12,-0.14,0.08,0.2,-7.45,1.69,0.29,0.0,0.0,0.0,-6.83,0.32,-7.02
1738248582.7266302,104680,0,0,,0.0,-0.85,0.35,0.36,0.12,-0.39,-0.74,0.38,-7.6,0.77,-0.74,0.0,0.0,0.0,-6.9,0.41,-6.95
1738248582.741934,104681,0,0,,0.0,-0.85,0.35,0.37,0.13,-0.31,-1.17,0.39,-7.14,-0.82,-1.57,0.0,0.0,0.0,-7.08,0.49,-6.76
1738248582.7605746,104682,0,0,,0.0,-0.84,0.35,0.39,0.13,0.03,-1.98,0.31,-6.97,-0.93,-1.62,0.0,0.0,0.0,-7.21,0.51,-6.62
1738248582.7763736,104683,0,0,,0.0,-0.83,0.35,0.4,0.14,0.24,-2.68,0.21,-6.73,-0.48,-2.61,0.0,0.0,0.0,-7.52,0.52,-6.26
1738248582.7919455,104684,0,0,,0.0,-0.82,0.35,0.43,0.15,0.27,-3.01,0.16,-6.79,0.0,-2.95,0.0,0.0,0.0,-7.89,0.51,-5.79
1738248582.8105285,104685,0,0,,0.0,-0.8,0.34,0.46,0.16,0.05,-3.61,0.09,-6.87,0.05,-3.21,0.0,0.0,0.0,-8.08,0.52,-5.52
1738248582.8270948,104686,0,0,,0.0,-0.8,0.34,0.47,0.17,-0.29,-4.14,0.01,-7.48,-0.32,-3.48,0.0,0.0,0.0,-8.49,0.54,-4.87
1738248582.842051,104687,0,0,,0.0,-0.77,0.33,0.51,0.18,-0.37,-4.39,-0.03,-8.18,-0.55,-4.01,0.0,0.0,0.0,-8.88,0.57,-4.11
1738248582.860911,104688,0,0,,0.0,-0.75,0.32,0.55,0.19,-0.38,-4.79,-0.08,-8.54,-0.46,-4.17,0.0,0.0,0.0,-9.06,0.57,-3.69
1738248582.8774624,104689,0,0,,0.0,-0.74,0.31,0.56,0.2,-0.64,-5.06,-0.07,-10.17,0.07,-4.43,0.0,0.0,0.0,-9.37,0.6,-2.79
1738248582.8922675,104690,0,0,,0.0,-0.71,0.3,0.6,0.21,-0.84,-5.17,-0.08,-11.41,0.76,-4.53,0.0,0.0,0.0,-9.61,0.62,-1.82
1738248582.9106588,104691,0,0,,0.0,-0.68,0.28,0.64,0.21,-1.27,-5.34,-0.07,-12.31,1.3,-4.65,0.0,0.0,0.0,-9.69,0.64,-1.31
1738248582.9270582,104692,0,0,,0.0,-0.67,0.27,0.66,0.21,-1.71,-5.46,-0.11,-13.05,1.29,-5.05,0.0,0.0,0.0,-9.78,0.64,-0.27
1738248582.942273,104693,0,0,,0.0,-0.63,0.24,0.7,0.22,-1.87,-5.47,-0.15,-14.12,0.41,-5.58,0.0,0.0,0.0,-9.75,0.6,0.78
1738248582.9606807,104694,0,0,,0.0,-0.6,0.21,0.74,0.22,-1.86,-5.38,-0.26,-14.8,0.27,-5.87,0.0,0.0,0.0,-9.7,0.56,1.3
1738248582.9773567,104695,0,0,,0.0,-0.58,0.2,0.75,0.22,-1.42,-5.19,-0.35,-16.14,-0.63,-6.15,0.0,0.0,0.0,-9.52,0.44,2.29
1738248582.9922671,104696,0,0,,0.0,-0.55,0.18,0.78,0.23,-0.96,-5.04,-0.42,-15.58,-1.04,-6.29,0.0,0.0,0.0,-9.26,0.33,3.19
1738248583.0110843,104697,0,0,,0.0,-0.52,0.18,0.8,0.25,0.32,-4.59,-0.5,-14.82,-1.24,-6.55,0.0,0.0,0.0,-9.11,0.29,3.6
1738248583.0270312,104698,0,0,,0.0,-0.5,0.18,0.81,0.25,1.36,-3.95,-0.39,-11.81,-0.04,-6.92,0.0,0.0,0.0,-8.8,0.31,4.31
1738248583.043012,104699,0,0,,0.0,-0.47,0.18,0.82,0.27,1.63,-3.53,-0.21,-8.34,1.13,-8.75,0.0,0.0,0.0,-8.51,0.44,4.84
1738248583.0607517,104700,0,0,,0.0,-0.45,0.19,0.83,0.28,1.86,-2.32,0.12,-7.36,1.89,-9.5,0.0,0.0,0.0,-8.4,0.54,5.02
1738248583.0776737,104701,0,0,,0.0,-0.44,0.19,0.83,0.28,0.99,-0.64,0.16,-6.33,3.12,-10.52,0.0,0.0,0.0,-8.29,0.69,5.18
1738248583.0925174,104702,0,0,,0.0,-0.45,0.2,0.83,0.28,0.19,0.23,0.15,-8.12,2.5,-8.97,0.0,0.0,0.0,-8.35,0.71,5.09
1738248583.1109905,104703,0,0,,0.0,-0.47,0.19,0.82,0.27,-0.91,1.49,0.17,-8.82,2.28,-8.21,0.0,0.0,0.0,-8.42,0.67,4.97
1738248583.1270702,104704,0,0,,0.0,-0.48,0.19,0.82,0.26,-1.37,2.1,0.28,-10.61,1.75,-5.63,0.0,0.0,0.0,-8.6,0.6,4.66
1738248583.1428113,104705,0,0,,0.0,-0.49,0.19,0.81,0.25,-1.53,2.18,0.35,-16.0,1.54,21.72,0.0,0.0,0.0,-8.76,0.54,4.35
1738248583.1607347,104706,0,0,,0.0,-0.5,0.18,0.81,0.24,-0.75,0.38,0.31,-19.33,-2.37,12.32,0.0,0.0,0.0,-8.78,0.53,4.33
1738248583.1776621,104707,0,0,,0.0,-0.5,0.18,0.81,0.24,-0.99,0.39,0.65,-4.5,-4.05,-9.03,0.0,0.0,0.0,-8.79,0.55,4.3
1738248583.1924438,104708,0,0,,0.0,-0.51,0.18,0.81,0.23,-0.86,1.04,0.49,-12.7,-2.42,4.76,0.0,0.0,0.0,-8.89,0.58,4.09
1738248583.211312,104709,0,0,,0.0,-0.52,0.18,0.81,0.22,-0.43,1.41,0.48,-13.49,-3.28,3.29,0.0,0.0,0.0,-8.94,0.6,3.97
1738248583.22769,104710,0,0,,0.0,-0.53,0.18,0.8,0.21,-0.8,1.41,0.4,-10.28,2.47,0.99,0.0,0.0,0.0,-9.04,0.62,3.74
1738248583.2427151,104711,0,0,,0.0,-0.54,0.18,0.8,0.2,-0.9,1.31,0.41,-10.11,1.95,2.02,0.0,0.0,0.0,-9.12,0.64,3.53
1738248583.2615056,104712,0,0,,0.0,-0.55,0.18,0.8,0.19,-0.71,1.13,0.56,-8.56,0.95,1.91,0.0,0.0,0.0,-9.19,0.71,3.33
1738248583.2774832,104713,0,0,,0.0,-0.55,0.18,0.79,0.19,-0.04,1.15,0.5,-9.11,0.76,2.05,0.0,0.0,0.0,-9.22,0.75,3.23
1738248583.2926195,104714,0,0,,0.0,-0.56,0.19,0.79,0.19,0.32,1.01,0.42,-10.32,-0.07,0.59,0.0,0.0,0.0,-9.27,0.85,3.05
1738248583.311113,104715,0,0,,0.0,-0.56,0.2,0.78,0.19,0.54,0.89,0.41,-10.46,-0.57,1.2,0.0,0.0,0.0,-9.32,0.95,2.88
1738248583.3278747,104716,0,0,,0.0,-0.56,0.2,0.78,0.19,0.65,0.86,0.36,-10.64,0.5,1.1,0.0,0.0,0.0,-9.34,1.0,2.8
1738248583.343005,104717,0,0,,0.0,-0.57,0.21,0.78,0.18,0.48,0.84,0.34,-10.41,1.63,1.11,0.0,0.0,0.0,-9.37,1.09,2.64
1738248583.36053,104718,0,0,,0.0,-0.57,0.21,0.77,0.18,-0.02,0.78,0.35,-10.16,1.75,0.64,0.0,0.0,0.0,-9.41,1.14,2.5
1738248583.37735,104719,0,0,,0.0,-0.58,0.21,0.77,0.18,-0.17,0.77,0.3,-9.5,1.47,1.25,0.0,0.0,0.0,-9.42,1.17,2.43
1738248583.3927162,104720,0,0,,0.0,-0.58,0.21,0.77,0.17,-0.13,0.79,0.28,-9.26,1.14,2.23,0.0,0.0,0.0,-9.45,1.21,2.29
1738248583.4113636,104721,0,0,,0.0,-0.59,0.22,0.76,0.17,0.14,0.85,0.2,-9.16,1.05,2.43,0.0,0.0,0.0,-9.48,1.26,2.12
1738248583.4277484,104722,0,0,,0.0,-0.59,0.22,0.76,0.17,0.52,0.95,0.14,-8.98,0.98,2.12,0.0,0.0,0.0,-9.5,1.28,2.03
1738248583.4427917,104723,0,0,,0.0,-0.6,0.23,0.75,0.17,0.7,0.99,0.1,-9.27,1.46,1.66,0.0,0.0,0.0,-9.54,1.32,1.82
1738248583.4610405,104724,0,0,,0.0,-0.6,0.24,0.74,0.17,0.76,1.06,0.08,-9.24,1.37,1.06,0.0,0.0,0.0,-9.57,1.36,1.6
1738248583.478351,104725,0,0,,0.0,-0.61,0.24,0.74,0.18,0.76,1.11,0.06,-9.79,1.08,0.92,0.0,0.0,0.0,-9.59,1.38,1.49
1738248583.4932287,104726,0,0,,0.0,-0.61,0.25,0.73,0.18,0.71,1.09,0.06,-9.85,0.7,0.45,0.0,0.0,0.0,-9.61,1.41,1.27
1738248583.5106702,104727,0,0,,0.0,-0.62,0.25,0.72,0.18,0.77,1.05,0.05,-9.99,0.9,0.16,0.0,0.0,0.0,-9.64,1.44,1.06
1738248583.5278711,104728,0,0,,0.0,-0.62,0.26,0.72,0.18,0.71,1.0,0.06,-9.74,1.22,-0.14,0.0,0.0,0.0,-9.65,1.45,0.95
1738248583.5430691,104729,0,0,,0.0,-0.63,0.26,0.71,0.18,0.66,0.99,0.06,-9.81,1.57,-0.17,0.0,0.0,0.0,-9.66,1.47,0.75
1738248583.56126,104730,0,0,,0.0,-0.63,0.27,0.71,0.18,0.42,0.94,0.08,-9.4,1.75,-0.52,0.0,0.0,0.0,-9.67,1.49,0.56
1738248583.578138,104731,0,0,,0.0,-0.63,0.27,0.7,0.18,0.23,0.93,0.08,-9.44,1.57,-0.41,0.0,0.0,0.0,-9.67,1.5,0.47
1738248583.5931044,104732,0,0,,0.0,-0.64,0.27,0.7,0.18,0.18,0.95,0.09,-9.72,1.53,-0.11,0.0,0.0,0.0,-9.68,1.52,0.29
1738248583.6114147,104733,0,0,,0.0,-0.65,0.28,0.69,0.17,0.1,0.98,0.06,-9.73,1.45,-0.28,0.0,0.0,0.0,-9.68,1.53,0.1
1738248583.627885,104734,0,0,,0.0,-0.65,0.28,0.69,0.17,0.17,1.04,0.06,-9.68,1.18,-0.19,0.0,0.0,0.0,-9.68,1.54,0.0
1738248583.643257,104735,0,0,,0.0,-0.66,0.28,0.68,0.17,0.23,1.05,0.03,-9.43,1.1,-0.78,0.0,0.0,0.0,-9.68,1.54,-0.2
1738248583.6615953,104736,0,0,,0.0,-0.66,0.29,0.67,0.17,0.32,1.16,0.03,-9.6,1.23,-0.47,0.0,0.0,0.0,-9.67,1.54,-0.43
1738248583.678174,104737,0,0,,0.0,-0.67,0.29,0.67,0.17,0.36,1.26,-0.01,-9.6,1.56,-0.55,0.0,0.0,0.0,-9.66,1.54,-0.55
1738248583.693073,104738,0,0,,0.0,-0.68,0.29,0.66,0.17,0.36,1.26,-0.01,-9.9,1.51,-0.37,0.0,0.0,0.0,-9.65,1.53,-0.81
1738248583.7121224,104739,0,0,,0.0,-0.68,0.3,0.64,0.17,0.42,1.44,-0.07,-10.19,1.69,-0.7,0.0,0.0,0.0,-9.62,1.51,-1.1
1738248583.728159,104740,0,0,,0.0,-0.69,0.3,0.64,0.17,0.45,1.55,-0.09,-10.72,1.34,-1.17,0.0,0.0,0.0,-9.6,1.5,-1.25
1738248583.7429674,104741,0,0,,0.0,-0.7,0.3,0.63,0.17,0.45,1.55,-0.09,-10.86,0.86,-1.89,0.0,0.0,0.0,-9.56,1.46,-1.55
1738248583.761388,104742,0,0,,0.0,-0.71,0.31,0.61,0.16,0.43,1.65,-0.14,-11.02,0.64,-1.68,0.0,0.0,0.0,-9.51,1.42,-1.88
1738248583.778742,104743,0,0,,0.0,-0.71,0.31,0.61,0.16,0.26,1.9,-0.25,-11.09,0.83,-1.93,0.0,0.0,0.0,-9.48,1.39,-2.06
1738248583.7931585,104744,0,0,,0.0,-0.73,0.31,0.59,0.16,0.26,1.9,-0.25,-12.39,-0.6,-0.02,0.0,0.0,0.0,-9.4,1.34,-2.42
1738248583.811321,104745,0,0,,0.0,-0.74,0.31,0.58,0.16,0.25,2.03,-0.33,-11.97,1.44,-2.64,0.0,0.0,0.0,-9.31,1.26,-2.8
1738248583.828706,104746,0,0,,0.0,-0.74,0.31,0.57,0.16,0.08,2.26,-0.42,-14.16,-0.71,1.31,0.0,0.0,0.0,-9.25,1.22,-3.0
1738248583.8434105,104747,0,0,,0.0,-0.76,0.32,0.55,0.15,0.02,2.28,-0.46,-11.06,0.36,-2.34,0.0,0.0,0.0,-9.12,1.13,-3.41
1738248583.8623557,104748,0,0,,0.0,-0.77,0.32,0.53,0.15,0.27,2.54,-0.37,-13.23,-2.16,1.55,0.0,0.0,0.0,-8.94,1.04,-3.88
1738248583.8789997,104749,0,0,,0.0,-0.78,0.32,0.52,0.15,0.45,2.84,-0.42,-13.11,-0.55,1.99,0.0,0.0,0.0,-8.83,0.99,-4.13
1738248583.8938847,104750,0,0,,0.0,-0.79,0.32,0.49,0.14,0.67,3.06,-0.19,-14.24,-1.49,2.85,0.0,0.0,0.0,-8.58,0.89,-4.65
1738248583.9121087,104751,0,0,,0.0,-0.81,0.33,0.46,0.14,0.69,3.18,-0.07,-14.69,-2.48,2.37,0.0,0.0,0.0,-8.28,0.81,-5.19
1738248583.929266,104752,0,0,,0.0,-0.82,0.34,0.45,0.14,1.13,3.29,-0.2,-16.58,6.33,-1.23,0.0,0.0,0.0,-8.11,0.74,-5.46
1738248583.944622,104753,0,0,,0.0,-0.83,0.34,0.42,0.14,1.0,3.0,0.06,-13.94,3.52,-2.41,0.0,0.0,0.0,-7.76,0.6,-5.95
1738248583.9624796,104754,0,0,,0.0,-0.84,0.35,0.4,0.13,0.55,2.85,0.21,-12.07,2.46,-3.79,0.0,0.0,0.0,-7.43,0.58,-6.37
1738248583.9795392,104755,0,0,,0.0,-0.84,0.35,0.39,0.13,0.12,2.66,0.08,-11.59,4.5,-2.85,0.0,0.0,0.0,-7.26,0.57,-6.56
1738248583.9956002,104756,0,0,,0.0,-0.85,0.36,0.37,0.12,-0.5,2.03,0.25,-11.17,2.84,0.96,0.0,0.0,0.0,-6.97,0.64,-6.86
1738248584.0128124,104757,0,0,,0.0,-0.85,0.36,0.36,0.1,-0.85,1.58,0.4,-10.33,2.2,2.04,0.0,0.0,0.0,-6.79,0.82,-7.02
1738248584.0296555,104758,0,0,,0.0,-0.86,0.36,0.36,0.1,-0.99,0.56,0.33,-7.04,0.38,0.21,0.0,0.0,0.0,-6.75,0.91,-7.05
1738248584.0453897,104759,0,0,,0.0,-0.85,0.36,0.36,0.09,-0.45,-0.26,0.32,-7.28,0.19,-1.0,0.0,0.0,0.0,-6.75,1.04,-7.03
1738248584.0621867,104760,0,0,,0.0,-0.85,0.36,0.37,0.09,-0.12,-0.68,0.35,-7.01,-0.25,-1.31,0.0,0.0,0.0,-6.86,1.08,-6.91
1738248584.079458,104761,0,0,,0.0,-0.85,0.36,0.38,0.1,0.5,-1.55,0.31,-6.01,-0.82,-1.24,0.0,0.0,0.0,-6.96,1.06,-6.81
1738248584.0948637,104762,0,0,,0.0,-0.84,0.36,0.39,0.11,1.03,-2.39,0.18,-5.42,0.39,-1.73,0.0,0.0,0.0,-7.24,0.98,-6.53
1738248584.1127768,104763,0,0,,0.0,-0.82,0.37,0.41,0.13,1.12,-2.78,0.12,-5.48,0.74,-1.94,0.0,0.0,0.0,-7.6,0.86,-6.13
1738248584.1294928,104764,0,0,,0.0,-0.82,0.37,0.43,0.14,0.83,-3.43,0.06,-5.74,1.11,-2.31,0.0,0.0,0.0,-7.8,0.81,-5.88
1738248584.1458046,104765,0,0,,0.0,-0.8,0.36,0.45,0.16,0.16,-3.97,0.02,-6.94,0.28,-2.53,0.0,0.0,0.0,-8.21,0.78,-5.29
1738248584.1627011,104766,0,0,,0.0,-0.78,0.35,0.49,0.17,-0.2,-4.24,-0.04,-7.6,0.07,-2.71,0.0,0.0,0.0,-8.63,0.8,-4.57
1738248584.179673,104767,0,0,,0.0,-0.77,0.35,0.51,0.17,-0.69,-4.71,-0.17,-8.59,-0.19,-3.28,0.0,0.0,0.0,-8.83,0.82,-4.17
1738248584.196092,104768,0,0,,0.0,-0.75,0.33,0.55,0.19,-0.98,-5.09,-0.25,-9.65,-0.03,-3.63,0.0,0.0,0.0,-9.2,0.84,-3.28
1738248584.2129152,104769,0,0,,0.0,-0.72,0.31,0.59,0.19,-1.14,-5.24,-0.3,-11.33,0.03,-3.69,0.0,0.0,0.0,-9.49,0.85,-2.3
1738248584.2301419,104770,0,0,,0.0,-0.71,0.3,0.61,0.2,-1.37,-5.5,-0.38,-12.98,0.01,-4.14,0.0,0.0,0.0,-9.6,0.84,-1.78
1738248584.2460682,104771,0,0,,0.0,-0.68,0.28,0.65,0.21,-1.18,-5.75,-0.44,-14.76,0.11,-5.53,0.0,0.0,0.0,-9.74,0.79,-0.69
1738248584.2629185,104772,0,0,,0.0,-0.64,0.26,0.69,0.22,-0.97,-5.82,-0.46,-15.11,0.37,-6.07,0.0,0.0,0.0,-9.77,0.71,0.41
1738248584.2806382,104773,0,0,,0.0,-0.62,0.25,0.7,0.23,-0.5,-5.75,-0.42,-15.38,0.69,-5.51,0.0,0.0,0.0,-9.73,0.67,0.96
1738248584.296673,104774,0,0,,0.0,-0.59,0.23,0.74,0.24,-0.24,-5.53,-0.28,-15.29,0.91,-5.24,0.0,0.0,0.0,-9.57,0.6,2.01
1738248584.313035,104775,0,0,,0.0,-0.55,0.22,0.77,0.25,-0.13,-5.34,-0.18,-15.59,1.1,-5.53,0.0,0.0,0.0,-9.32,0.57,2.97
1738248584.3307428,104776,0,0,,0.0,-0.53,0.21,0.78,0.26,-0.15,-4.88,0.04,-15.28,0.39,-5.78,0.0,0.0,0.0,-9.17,0.57,3.41
1738248584.34644,104777,0,0,,0.0,-0.5,0.2,0.8,0.27,0.09,-4.24,0.1,-11.85,-0.1,-7.33,0.0,0.0,0.0,-8.84,0.59,4.18
1738248584.3629715,104778,0,0,,0.0,-0.47,0.2,0.82,0.28,0.33,-3.79,0.1,-9.16,-0.13,-9.04,0.0,0.0,0.0,-8.54,0.64,4.77
1738248584.3804464,104779,0,0,,0.0,-0.46,0.2,0.82,0.28,0.62,-2.61,0.16,-6.09,0.21,-11.37,0.0,0.0,0.0,-8.41,0.69,4.98
1738248584.3968732,104780,0,0,,0.0,-0.44,0.2,0.83,0.28,0.75,-0.84,0.18,-5.87,1.7,-11.82,0.0,0.0,0.0,-8.28,0.79,5.18
1738248584.413331,104781,0,0,,0.0,-0.45,0.2,0.82,0.28,0.5,0.15,0.13,-8.8,1.9,-9.03,0.0,0.0,0.0,-8.34,0.84,5.08
1738248584.430453,104782,0,0,,0.0,-0.46,0.21,0.82,0.28,-0.3,1.55,0.1,-9.38,1.49,-7.97,0.0,0.0,0.0,-8.41,0.83,4.96
1738248584.4464006,104783,0,0,,0.0,-0.47,0.21,0.81,0.27,-0.67,2.18,0.15,-11.34,0.84,-2.38,0.0,0.0,0.0,-8.6,0.8,4.63
1738248584.46334,104784,0,0,,0.0,-0.49,0.21,0.81,0.26,-0.76,2.27,0.19,-23.16,0.3,38.86,0.0,0.0,0.0,-8.78,0.77,4.28
1738248584.4807117,104785,0,0,,0.0,-0.49,0.21,0.81,0.26,-0.01,0.78,0.28,-21.03,-1.16,19.55,0.0,0.0,0.0,-8.81,0.79,4.21
1738248584.4967425,104786,0,0,,0.0,-0.49,0.21,0.81,0.26,-0.51,0.02,0.58,-3.77,-3.71,-11.78,0.0,0.0,0.0,-8.8,0.84,4.22
1738248584.5136743,104787,0,0,,0.0,-0.5,0.21,0.8,0.25,-0.53,0.5,0.57,-14.13,-1.99,3.49,0.0,0.0,0.0,-8.86,0.87,4.09
1738248584.5306406,104788,0,0,,0.0,-0.51,0.21,0.8,0.24,-0.4,1.28,0.31,-13.04,-1.03,1.36,0.0,0.0,0.0,-8.91,0.89,3.98
1738248584.5469587,104789,0,0,,0.0,-0.51,0.21,0.8,0.23,-0.95,1.23,0.48,-9.66,0.97,1.36,0.0,0.0,0.0,-9.0,0.9,3.78
1738248584.5631585,104790,0,0,,0.0,-0.52,0.2,0.8,0.22,-1.15,1.14,0.46,-9.49,1.49,3.32,0.0,0.0,0.0,-9.07,0.9,3.6
1738248584.58078,104791,0,0,,0.0,-0.53,0.2,0.79,0.21,-0.85,1.06,0.51,-9.4,1.59,2.99,0.0,0.0,0.0,-9.1,0.92,3.52
1738248584.5968168,104792,0,0,,0.0,-0.54,0.21,0.79,0.21,-0.25,1.1,0.59,-8.66,2.1,1.42,0.0,0.0,0.0,-9.16,1.0,3.33
1738248584.613465,104793,0,0,,0.0,-0.54,0.21,0.79,0.2,-0.03,1.01,0.51,-10.28,0.9,0.71,0.0,0.0,0.0,-9.21,1.08,3.16
1738248584.63095,104794,0,0,,0.0,-0.55,0.22,0.78,0.2,0.25,0.9,0.42,-10.99,-1.08,2.39,0.0,0.0,0.0,-9.24,1.13,3.07
1738248584.6469314,104795,0,0,,0.0,-0.55,0.22,0.78,0.2,0.76,0.81,0.39,-9.98,0.09,0.35,0.0,0.0,0.0,-9.28,1.24,2.91
1738248584.663538,104796,0,0,,0.0,-0.55,0.23,0.77,0.2,0.76,0.82,0.37,-10.0,2.26,1.2,0.0,0.0,0.0,-9.31,1.34,2.74
1738248584.680831,104797,0,0,,0.0,-0.56,0.24,0.77,0.2,0.41,0.87,0.33,-9.62,2.3,1.32,0.0,0.0,0.0,-9.33,1.38,2.66
1738248584.697354,104798,0,0,,0.0,-0.56,0.24,0.77,0.19,-0.01,0.93,0.3,-9.09,2.36,1.61,0.0,0.0,0.0,-9.37,1.44,2.49
1738248584.713776,104799,0,0,,0.0,-0.57,0.24,0.76,0.19,-0.04,0.92,0.27,-9.11,1.51,2.27,0.0,0.0,0.0,-9.4,1.49,2.32
1738248584.7314248,104800,0,0,,0.0,-0.57,0.25,0.76,0.19,0.15,0.96,0.18,-9.15,1.32,1.96,0.0,0.0,0.0,-9.42,1.51,2.23
1738248584.7476938,104801,0,0,,0.0,-0.58,0.25,0.75,0.19,0.52,1.02,0.11,-9.19,1.19,1.72,0.0,0.0,0.0,-9.46,1.55,2.04
1738248584.7635593,104802,0,0,,0.0,-0.58,0.26,0.75,0.19,0.67,1.06,0.08,-9.25,1.41,0.75,0.0,0.0,0.0,-9.5,1.59,1.82
1738248584.7813685,104803,0,0,,0.0,-0.59,0.26,0.74,0.19,0.77,1.09,0.04,-9.52,1.19,1.45,0.0,0.0,0.0,-9.52,1.6,1.71
1738248584.7974565,104804,0,0,,0.0,-0.59,0.27,0.73,0.19,0.75,1.12,0.02,-9.81,1.07,0.78,0.0,0.0,0.0,-9.55,1.63,1.48
1738248584.813989,104805,0,0,,0.0,-0.6,0.28,0.73,0.19,0.72,1.09,0.03,-9.81,1.2,0.17,0.0,0.0,0.0,-9.58,1.66,1.25
1738248584.8311784,104806,0,0,,0.0,-0.61,0.28,0.72,0.19,0.69,1.05,0.04,-10.0,1.43,0.67,0.0,0.0,0.0,-9.59,1.67,1.14
1738248584.8478508,104807,0,0,,0.0,-0.61,0.28,0.71,0.19,0.54,0.96,0.04,-9.75,1.54,0.06,0.0,0.0,0.0,-9.61,1.69,0.94
1738248584.8642242,104808,0,0,,0.0,-0.61,0.29,0.71,0.19,0.49,0.94,0.04,-9.46,1.61,-0.31,0.0,0.0,0.0,-9.62,1.7,0.75
1738248584.881211,104809,0,0,,0.0,-0.62,0.29,0.7,0.19,0.34,0.88,0.05,-9.37,1.52,0.06,0.0,0.0,0.0,-9.63,1.71,0.67
1738248584.89706,104810,0,0,,0.0,-0.62,0.3,0.7,0.19,0.24,0.92,0.05,-9.67,1.87,0.13,0.0,0.0,0.0,-9.64,1.72,0.49
1738248584.91403,104811,0,0,,0.0,-0.63,0.3,0.69,0.19,0.15,0.9,0.06,-9.76,1.61,0.27,0.0,0.0,0.0,-9.64,1.73,0.31
1738248584.9317772,104812,0,0,,0.0,-0.63,0.3,0.69,0.19,0.08,0.96,0.04,-9.82,1.52,0.18,0.0,0.0,0.0,-9.64,1.74,0.22
1738248584.9481716,104813,0,0,,0.0,-0.64,0.3,0.68,0.18,0.1,0.98,0.04,-9.79,1.29,0.01,0.0,0.0,0.0,-9.64,1.74,0.03
1738248584.9641943,104814,0,0,,0.0,-0.64,0.31,0.68,0.18,0.18,1.02,0.01,-9.63,1.35,-0.37,0.0,0.0,0.0,-9.64,1.74,-0.15
1738248584.9816782,104815,0,0,,0.0,-0.65,0.31,0.67,0.18,0.29,1.04,-0.01,-9.6,1.48,-0.51,0.0,0.0,0.0,-9.64,1.74,-0.26
1738248584.9979906,104816,0,0,,0.0,-0.65,0.31,0.67,0.18,0.4,1.15,-0.07,-9.68,1.85,-0.65,0.0,0.0,0.0,-9.63,1.73,-0.48
1738248585.0143576,104817,0,0,,0.0,-0.66,0.32,0.66,0.18,0.42,1.19,-0.09,-10.16,1.73,-0.26,0.0,0.0,0.0,-9.62,1.71,-0.72
1738248585.0324905,104818,0,0,,0.0,-0.67,0.32,0.65,0.18,0.45,1.29,-0.15,-10.0,1.84,-0.96,0.0,0.0,0.0,-9.62,1.69,-0.85
1738248585.0485857,104819,0,0,,0.0,-0.67,0.32,0.64,0.18,0.46,1.36,-0.18,-10.63,1.43,-1.26,0.0,0.0,0.0,-9.6,1.65,-1.11
1738248585.0638027,104820,0,0,,0.0,-0.68,0.33,0.63,0.18,0.47,1.4,-0.21,-10.84,1.22,-1.38,0.0,0.0,0.0,-9.57,1.6,-1.39
1738248585.0818694,104821,0,0,,0.0,-0.69,0.33,0.62,0.18,0.48,1.47,-0.25,-10.72,0.89,-1.89,0.0,0.0,0.0,-9.55,1.57,-1.53
1738248585.09901,104822,0,0,,0.0,-0.7,0.33,0.61,0.18,0.46,1.56,-0.33,-10.97,0.83,-1.72,0.0,0.0,0.0,-9.51,1.49,-1.83
1738248585.1140597,104823,0,0,,0.0,-0.71,0.33,0.6,0.18,0.44,1.59,-0.36,-11.44,0.75,-1.54,0.0,0.0,0.0,-9.46,1.41,-2.14
1738248585.1322773,104824,0,0,,0.0,-0.72,0.34,0.58,0.18,0.45,1.76,-0.42,-11.65,0.57,-0.85,0.0,0.0,0.0,-9.39,1.31,-2.48
1738248585.1492193,104825,0,0,,0.0,-0.72,0.34,0.58,0.18,0.56,1.83,-0.5,-12.79,2.12,-2.03,0.0,0.0,0.0,-9.35,1.25,-2.65
1738248585.1646788,104826,0,0,,0.0,-0.73,0.34,0.56,0.18,0.48,1.97,-0.58,-13.46,-0.14,0.39,0.0,0.0,0.0,-9.25,1.12,-3.03
1738248585.1828341,104827,0,0,,0.0,-0.75,0.34,0.54,0.18,0.28,2.1,-0.64,-12.44,-0.41,-0.79,0.0,0.0,0.0,-9.13,0.99,-3.42
1738248585.1994834,104828,0,0,,0.0,-0.75,0.34,0.53,0.18,0.39,2.45,-0.65,-12.99,-1.72,1.65,0.0,0.0,0.0,-9.05,0.92,-3.64
1738248585.2145195,104829,0,0,,0.0,-0.77,0.34,0.51,0.18,0.58,2.64,-0.65,-12.2,-0.44,1.79,0.0,0.0,0.0,-8.87,0.76,-4.1
1738248585.2319038,104830,0,0,,0.0,-0.78,0.35,0.48,0.18,0.67,2.77,-0.6,-12.37,-0.6,1.83,0.0,0.0,0.0,-8.64,0.6,-4.59
1738248585.250255,104831,0,0,,0.0,-0.79,0.35,0.47,0.17,0.69,3.02,-0.49,-13.09,0.03,2.42,0.0,0.0,0.0,-8.5,0.53,-4.84
1738248585.265684,104832,0,0,,0.0,-0.8,0.36,0.44,0.17,0.88,3.07,-0.3,-14.08,5.32,-1.17,0.0,0.0,0.0,-8.2,0.4,-5.35
1738248585.2828908,104833,0,0,,0.0,-0.82,0.36,0.42,0.17,0.78,3.19,-0.25,-14.85,4.61,-3.94,0.0,0.0,0.0,-7.85,0.3,-5.85
1738248585.3003697,104834,0,0,,0.0,-0.82,0.36,0.4,0.16,-0.04,3.22,-0.19,-14.24,2.14,-4.18,0.0,0.0,0.0,-7.67,0.29,-6.1
1738248585.315804,104835,0,0,,0.0,-0.84,0.37,0.38,0.15,-0.07,2.81,-0.08,-12.54,2.14,-1.11,0.0,0.0,0.0,-7.31,0.28,-6.52
1738248585.3331501,104836,0,0,,0.0,-0.84,0.37,0.36,0.14,-0.01,2.5,-0.02,-11.47,2.27,0.45,0.0,0.0,0.0,-7.01,0.29,-6.84
1738248585.3501391,104837,0,0,,0.0,-0.85,0.37,0.36,0.14,-0.14,1.56,0.18,-10.24,1.59,1.63,0.0,0.0,0.0,-6.91,0.32,-6.94
1738248585.3649242,104838,0,0,,0.0,-0.85,0.37,0.35,0.13,-0.07,0.69,0.14,-8.11,0.96,-0.13,0.0,0.0,0.0,-6.79,0.35,-7.06
1738248585.3831685,104839,0,0,,0.0,-0.85,0.38,0.35,0.13,0.01,0.35,0.17,-8.11,0.98,-0.07,0.0,0.0,0.0,-6.76,0.36,-7.08
1738248585.4000452,104840,0,0,,0.0,-0.85,0.38,0.35,0.13,0.21,-0.41,0.28,-7.18,0.85,-1.19,0.0,0.0,0.0,-6.79,0.37,-7.05
1738248585.4155881,104841,0,0,,0.0,-0.84,0.38,0.36,0.14,0.31,-1.25,0.37,-6.38,0.71,-1.24,0.0,0.0,0.0,-6.93,0.38,-6.92
1738248585.433349,104842,0,0,,0.0,-0.83,0.38,0.37,0.15,0.34,-1.66,0.39,-5.97,0.84,-1.15,0.0,0.0,0.0,-7.17,0.38,-6.67
1738248585.4510553,104843,0,0,,0.0,-0.83,0.38,0.38,0.15,0.23,-2.44,0.39,-5.77,1.16,-2.07,0.0,0.0,0.0,-7.33,0.4,-6.5
1738248585.4659338,104844,0,0,,0.0,-0.82,0.38,0.41,0.16,-0.14,-3.11,0.36,-6.27,0.76,-2.39,0.0,0.0,0.0,-7.68,0.45,-6.07
1738248585.4840753,104845,0,0,,0.0,-0.8,0.37,0.44,0.17,-0.38,-3.4,0.32,-6.65,0.46,-2.38,0.0,0.0,0.0,-8.08,0.55,-5.52
1738248585.501166,104846,0,0,,0.0,-0.79,0.37,0.45,0.17,-0.81,-3.94,0.16,-7.84,-0.23,-3.1,0.0,0.0,0.0,-8.28,0.61,-5.2
1738248585.5173922,104847,0,0,,0.0,-0.77,0.36,0.49,0.18,-1.03,-4.42,-0.02,-8.36,-0.19,-3.34,0.0,0.0,0.0,-8.69,0.71,-4.48
1738248585.5341988,104848,0,0,,0.0,-0.75,0.34,0.53,0.19,-1.13,-4.6,-0.1,-9.88,0.11,-3.81,0.0,0.0,0.0,-9.06,0.77,-3.66
1738248585.5524116,104849,0,0,,0.0,-0.73,0.32,0.57,0.19,-1.46,-4.93,-0.27,-10.47,0.38,-3.98,0.0,0.0,0.0,-9.22,0.8,-3.21
1738248585.567677,104850,0,0,,0.0,-0.72,0.31,0.59,0.2,-1.79,-5.15,-0.4,-12.31,0.63,-4.58,0.0,0.0,0.0,-9.5,0.82,-2.26
1738248585.5846803,104851,0,0,,0.0,-0.69,0.29,0.63,0.2,-1.9,-5.23,-0.46,-12.89,1.05,-5.47,0.0,0.0,0.0,-9.69,0.8,-1.25
1738248585.6019874,104852,0,0,,0.0,-0.67,0.26,0.67,0.21,-2.02,-5.27,-0.54,-13.22,1.06,-5.56,0.0,0.0,0.0,-9.74,0.77,-0.74
1738248585.618563,104853,0,0,,0.0,-0.65,0.25,0.69,0.21,-1.84,-5.17,-0.61,-14.05,0.42,-6.2,0.0,0.0,0.0,-9.78,0.67,0.26
1738248585.635438,104854,0,0,,0.0,-0.62,0.22,0.72,0.21,-1.36,-5.02,-0.63,-14.37,0.48,-6.67,0.0,0.0,0.0,-9.71,0.53,1.23
1738248585.6522372,104855,0,0,,0.0,-0.59,0.2,0.75,0.22,-1.1,-4.92,-0.59,-14.02,0.33,-6.68,0.0,0.0,0.0,-9.64,0.45,1.7
1738248585.6688886,104856,0,0,,0.0,-0.58,0.2,0.76,0.23,-0.49,-4.55,-0.48,-13.27,0.31,-6.69,0.0,0.0,0.0,-9.45,0.33,2.56
1738248585.6852574,104857,0,0,,0.0,-0.54,0.18,0.78,0.24,0.13,-4.04,-0.4,-12.31,-0.01,-7.27,0.0,0.0,0.0,-9.22,0.26,3.32
1738248585.7028918,104858,0,0,,0.0,-0.52,0.18,0.8,0.25,0.42,-3.72,-0.34,-11.69,-0.06,-7.22,0.0,0.0,0.0,-9.09,0.24,3.65
1738248585.7189405,104859,0,0,,0.0,-0.5,0.18,0.81,0.26,0.81,-2.94,-0.17,-9.62,0.71,-7.79,0.0,0.0,0.0,-8.85,0.26,4.19
1738248585.7360487,104860,0,0,,0.0,-0.49,0.18,0.81,0.26,0.85,-1.94,0.01,-8.71,1.51,-8.12,0.0,0.0,0.0,-8.67,0.32,4.56
1738248585.752508,104861,0,0,,0.0,-0.48,0.18,0.82,0.27,0.73,-1.39,0.07,-8.22,2.01,-8.62,0.0,0.0,0.0,-8.57,0.4,4.74
1738248585.7683904,104862,0,0,,0.0,-0.47,0.18,0.82,0.27,0.2,-0.24,0.14,-8.54,1.94,-9.01,0.0,0.0,0.0,-8.56,0.42,4.76
1738248585.7853854,104863,0,0,,0.0,-0.48,0.18,0.82,0.26,-0.36,0.77,0.17,-9.03,2.01,-9.01,0.0,0.0,0.0,-8.6,0.42,4.67
1738248585.80275,104864,0,0,,0.0,-0.49,0.18,0.81,0.26,-0.52,1.22,0.19,-9.18,1.82,-9.41,0.0,0.0,0.0,-8.66,0.41,4.57
1738248585.818481,104865,0,0,,0.0,-0.5,0.18,0.81,0.25,-0.55,1.59,0.19,-24.71,-4.44,29.88,0.0,0.0,0.0,-8.79,0.4,4.31
1738248585.8352876,104866,0,0,,0.0,-0.5,0.18,0.81,0.25,-0.22,0.09,0.32,-10.35,-1.45,-0.04,0.0,0.0,0.0,-8.82,0.42,4.25
1738248585.852807,104867,0,0,,0.0,-0.51,0.18,0.81,0.24,-0.49,0.34,0.56,-5.55,-3.15,-7.55,0.0,0.0,0.0,-8.83,0.45,4.22
1738248585.8680592,104868,0,0,,0.0,-0.51,0.18,0.8,0.24,-0.12,1.36,0.27,-13.07,-2.11,6.12,0.0,0.0,0.0,-8.92,0.49,4.03
1738248585.8853319,104869,0,0,,0.0,-0.52,0.19,0.8,0.24,-0.25,1.33,0.38,-9.69,2.65,1.02,0.0,0.0,0.0,-9.02,0.53,3.8
1738248585.902085,104870,0,0,,0.0,-0.53,0.19,0.79,0.23,-0.61,1.34,0.39,-9.45,3.42,2.11,0.0,0.0,0.0,-9.07,0.54,3.68
1738248585.9182243,104871,0,0,,0.0,-0.54,0.19,0.79,0.22,-0.84,1.09,0.44,-9.02,2.11,3.84,0.0,0.0,0.0,-9.14,0.56,3.49
1738248585.9353535,104872,0,0,,0.0,-0.54,0.19,0.79,0.21,-0.51,1.07,0.55,-8.35,0.68,1.3,0.0,0.0,0.0,-9.21,0.61,3.31
1738248585.9523792,104873,0,0,,0.0,-0.55,0.19,0.79,0.21,-0.23,1.05,0.53,-8.56,0.38,1.71,0.0,0.0,0.0,-9.24,0.65,3.21
1738248585.9673772,104874,0,0,,0.0,-0.55,0.19,0.78,0.21,0.5,0.89,0.39,-10.47,0.0,0.89,0.0,0.0,0.0,-9.29,0.74,3.04
1738248585.984602,104875,0,0,,0.0,-0.56,0.2,0.78,0.2,0.63,0.88,0.39,-10.55,-0.3,0.81,0.0,0.0,0.0,-9.33,0.85,2.87
1738248586.002109,104876,0,0,,0.0,-0.56,0.21,0.77,0.2,0.66,0.85,0.38,-10.19,0.53,0.64,0.0,0.0,0.0,-9.35,0.9,2.79
1738248586.017544,104877,0,0,,0.0,-0.57,0.21,0.77,0.2,0.26,0.84,0.34,-10.36,1.41,1.58,0.0,0.0,0.0,-9.39,0.99,2.63
1738248586.0349417,104878,0,0,,0.0,-0.57,0.22,0.77,0.2,0.01,0.81,0.35,-9.9,1.5,1.33,0.0,0.0,0.0,-9.42,1.04,2.49
1738248586.0518906,104879,0,0,,0.0,-0.58,0.22,0.76,0.19,-0.3,0.76,0.33,-9.73,1.32,1.22,0.0,0.0,0.0,-9.44,1.07,2.42
1738248586.0666668,104880,0,0,,0.0,-0.58,0.22,0.76,0.19,-0.15,0.76,0.26,-9.54,0.64,1.49,0.0,0.0,0.0,-9.46,1.11,2.29
1738248586.0844252,104881,0,0,,0.0,-0.58,0.22,0.76,0.19,0.03,0.79,0.22,-9.32,0.45,2.18,0.0,0.0,0.0,-9.49,1.15,2.14
1738248586.1017957,104882,0,0,,0.0,-0.59,0.23,0.75,0.19,0.48,0.84,0.15,-9.0,0.98,1.92,0.0,0.0,0.0,-9.51,1.18,2.06
1738248586.11725,104883,0,0,,0.0,-0.59,0.23,0.75,0.19,0.73,0.94,0.1,-9.23,1.41,2.49,0.0,0.0,0.0,-9.54,1.22,1.87
1738248586.134981,104884,0,0,,0.0,-0.6,0.24,0.74,0.19,0.72,0.97,0.08,-9.18,1.51,1.64,0.0,0.0,0.0,-9.57,1.26,1.67
1738248586.1523857,104885,0,0,,0.0,-0.6,0.25,0.73,0.19,0.63,1.08,0.05,-9.42,1.42,1.39,0.0,0.0,0.0,-9.59,1.27,1.56
1738248586.1666875,104886,0,0,,0.0,-0.61,0.25,0.73,0.19,0.55,1.11,0.02,-9.79,0.7,0.82,0.0,0.0,0.0,-9.62,1.29,1.34
1738248586.1850026,104887,0,0,,0.0,-0.61,0.26,0.72,0.19,0.59,1.11,0.02,-9.88,0.67,0.24,0.0,0.0,0.0,-9.65,1.31,1.12
1738248586.2021177,104888,0,0,,0.0,-0.62,0.26,0.71,0.19,0.7,1.06,0.01,-9.7,0.84,-0.26,0.0,0.0,0.0,-9.66,1.32,1.01
1738248586.2168658,104889,0,0,,0.0,-0.62,0.27,0.71,0.19,0.65,1.07,0.01,-10.22,1.1,0.41,0.0,0.0,0.0,-9.68,1.33,0.79
1738248586.2346084,104890,0,0,,0.0,-0.63,0.27,0.7,0.19,0.51,1.01,0.02,-10.16,1.03,0.43,0.0,0.0,0.0,-9.69,1.34,0.6
1738248586.252457,104891,0,0,,0.0,-0.64,0.27,0.7,0.19,0.27,1.0,0.05,-10.1,1.24,-0.34,0.0,0.0,0.0,-9.69,1.35,0.5
1738248586.267012,104892,0,0,,0.0,-0.64,0.28,0.69,0.19,0.05,0.94,0.08,-9.96,1.01,-0.21,0.0,0.0,0.0,-9.7,1.36,0.32
1738248586.285128,104893,0,0,,0.0,-0.64,0.28,0.69,0.19,0.03,0.94,0.08,-9.66,1.12,-0.72,0.0,0.0,0.0,-9.7,1.38,0.14
1738248586.3023076,104894,0,0,,0.0,-0.65,0.28,0.68,0.18,0.08,0.9,0.08,-9.53,0.96,-0.77,0.0,0.0,0.0,-9.7,1.38,0.06
1738248586.317605,104895,0,0,,0.0,-0.65,0.28,0.68,0.18,0.24,0.91,0.05,-9.45,1.13,-0.63,0.0,0.0,0.0,-9.7,1.4,-0.11
1738248586.3351667,104896,0,0,,0.0,-0.66,0.29,0.67,0.18,0.35,1.0,0.04,-9.56,1.23,-0.05,0.0,0.0,0.0,-9.7,1.4,-0.3
1738248586.3523524,104897,0,0,,0.0,-0.66,0.29,0.66,0.18,0.35,1.02,0.03,-9.53,1.32,-0.47,0.0,0.0,0.0,-9.69,1.41,-0.4
1738248586.3673377,104898,0,0,,0.0,-0.67,0.29,0.66,0.18,0.32,1.1,0.04,-9.54,1.17,-0.93,0.0,0.0,0.0,-9.68,1.41,-0.61
1738248586.3848128,104899,0,0,,0.0,-0.67,0.3,0.65,0.18,0.34,1.17,0.02,-9.98,1.34,-0.91,0.0,0.0,0.0,-9.66,1.41,-0.84
1738248586.4023054,104900,0,0,,0.0,-0.68,0.3,0.64,0.18,0.34,1.21,0.01,-9.93,1.42,-1.71,0.0,0.0,0.0,-9.65,1.4,-0.96
